subj,session,trial,rt,object_response,category,condition,imagename
cornet-s,4,1,NaN,knife,knife,0,3841_lp_dnn_0_knife_10_n03041632_31909.png
cornet-s,4,2,NaN,knife,knife,0,3842_lp_dnn_0_knife_10_n03041632_84869.png
cornet-s,4,3,NaN,knife,knife,0,3843_lp_dnn_0_knife_10_n03041632_43436.png
cornet-s,4,4,NaN,knife,knife,0,3844_lp_dnn_0_knife_10_n03041632_50648.png
cornet-s,4,5,NaN,knife,knife,0,3845_lp_dnn_0_knife_10_n03041632_24561.png
cornet-s,4,6,NaN,knife,knife,0,3846_lp_dnn_0_knife_10_n03041632_32197.png
cornet-s,4,7,NaN,knife,knife,0,3847_lp_dnn_0_knife_10_n03041632_32048.png
cornet-s,4,8,NaN,knife,knife,0,3848_lp_dnn_0_knife_10_n03041632_35116.png
cornet-s,4,9,NaN,knife,knife,0,3849_lp_dnn_0_knife_10_n03041632_13194.png
cornet-s,4,10,NaN,boat,knife,0,3850_lp_dnn_0_knife_10_n03041632_80829.png
cornet-s,4,11,NaN,keyboard,keyboard,0,3851_lp_dnn_0_keyboard_10_n03085013_21166.png
cornet-s,4,12,NaN,keyboard,keyboard,0,3852_lp_dnn_0_keyboard_10_n03085013_21277.png
cornet-s,4,13,NaN,keyboard,keyboard,0,3853_lp_dnn_0_keyboard_10_n04505470_659.png
cornet-s,4,14,NaN,keyboard,keyboard,0,3854_lp_dnn_0_keyboard_10_n03085013_18214.png
cornet-s,4,15,NaN,clock,keyboard,0,3855_lp_dnn_0_keyboard_10_n03085013_18674.png
cornet-s,4,16,NaN,keyboard,keyboard,0,3856_lp_dnn_0_keyboard_10_n03085013_1193.png
cornet-s,4,17,NaN,keyboard,keyboard,0,3857_lp_dnn_0_keyboard_10_n03085013_23018.png
cornet-s,4,18,NaN,keyboard,keyboard,0,3858_lp_dnn_0_keyboard_10_n04505470_4651.png
cornet-s,4,19,NaN,keyboard,keyboard,0,3859_lp_dnn_0_keyboard_10_n04505470_7015.png
cornet-s,4,20,NaN,keyboard,keyboard,0,3860_lp_dnn_0_keyboard_10_n03085013_20923.png
cornet-s,4,21,NaN,elephant,elephant,0,3861_lp_dnn_0_elephant_10_n02504013_4485.png
cornet-s,4,22,NaN,elephant,elephant,0,3862_lp_dnn_0_elephant_10_n02504013_7659.png
cornet-s,4,23,NaN,elephant,elephant,0,3863_lp_dnn_0_elephant_10_n02504013_3300.png
cornet-s,4,24,NaN,elephant,elephant,0,3864_lp_dnn_0_elephant_10_n02504013_6223.png
cornet-s,4,25,NaN,elephant,elephant,0,3865_lp_dnn_0_elephant_10_n02504013_4247.png
cornet-s,4,26,NaN,elephant,elephant,0,3866_lp_dnn_0_elephant_10_n02504458_1445.png
cornet-s,4,27,NaN,elephant,elephant,0,3867_lp_dnn_0_elephant_10_n02504458_6906.png
cornet-s,4,28,NaN,elephant,elephant,0,3868_lp_dnn_0_elephant_10_n02504013_1986.png
cornet-s,4,29,NaN,elephant,elephant,0,3869_lp_dnn_0_elephant_10_n02504458_11289.png
cornet-s,4,30,NaN,elephant,elephant,0,3870_lp_dnn_0_elephant_10_n02504013_6465.png
cornet-s,4,31,NaN,bicycle,bicycle,0,3871_lp_dnn_0_bicycle_10_n03792782_13541.png
cornet-s,4,32,NaN,bicycle,bicycle,0,3872_lp_dnn_0_bicycle_10_n02835271_20975.png
cornet-s,4,33,NaN,bicycle,bicycle,0,3873_lp_dnn_0_bicycle_10_n03792782_29606.png
cornet-s,4,34,NaN,bicycle,bicycle,0,3874_lp_dnn_0_bicycle_10_n03792782_19525.png
cornet-s,4,35,NaN,bicycle,bicycle,0,3875_lp_dnn_0_bicycle_10_n03792782_4102.png
cornet-s,4,36,NaN,bicycle,bicycle,0,3876_lp_dnn_0_bicycle_10_n03792782_13324.png
cornet-s,4,37,NaN,bicycle,bicycle,0,3877_lp_dnn_0_bicycle_10_n03792782_67167.png
cornet-s,4,38,NaN,bicycle,bicycle,0,3878_lp_dnn_0_bicycle_10_n02835271_16182.png
cornet-s,4,39,NaN,bicycle,bicycle,0,3879_lp_dnn_0_bicycle_10_n03792782_11625.png
cornet-s,4,40,NaN,bicycle,bicycle,0,3880_lp_dnn_0_bicycle_10_n02835271_8287.png
cornet-s,4,41,NaN,airplane,airplane,0,3881_lp_dnn_0_airplane_10_n02690373_6674.png
cornet-s,4,42,NaN,airplane,airplane,0,3882_lp_dnn_0_airplane_10_n02690373_9718.png
cornet-s,4,43,NaN,airplane,airplane,0,3883_lp_dnn_0_airplane_10_n02690373_13613.png
cornet-s,4,44,NaN,airplane,airplane,0,3884_lp_dnn_0_airplane_10_n02690373_1005.png
cornet-s,4,45,NaN,airplane,airplane,0,3885_lp_dnn_0_airplane_10_n02690373_6845.png
cornet-s,4,46,NaN,airplane,airplane,0,3886_lp_dnn_0_airplane_10_n02690373_19329.png
cornet-s,4,47,NaN,airplane,airplane,0,3887_lp_dnn_0_airplane_10_n02690373_9659.png
cornet-s,4,48,NaN,airplane,airplane,0,3888_lp_dnn_0_airplane_10_n02690373_1862.png
cornet-s,4,49,NaN,airplane,airplane,0,3889_lp_dnn_0_airplane_10_n02690373_4009.png
cornet-s,4,50,NaN,airplane,airplane,0,3890_lp_dnn_0_airplane_10_n02690373_4029.png
cornet-s,4,51,NaN,clock,clock,0,3891_lp_dnn_0_clock_10_n04548280_596.png
cornet-s,4,52,NaN,clock,clock,0,3892_lp_dnn_0_clock_10_n02708093_8002.png
cornet-s,4,53,NaN,clock,clock,0,3893_lp_dnn_0_clock_10_n02708093_2020.png
cornet-s,4,54,NaN,clock,clock,0,3894_lp_dnn_0_clock_10_n04548280_6099.png
cornet-s,4,55,NaN,clock,clock,0,3895_lp_dnn_0_clock_10_n02708093_6734.png
cornet-s,4,56,NaN,clock,clock,0,3896_lp_dnn_0_clock_10_n02708093_5803.png
cornet-s,4,57,NaN,clock,clock,0,3897_lp_dnn_0_clock_10_n02708093_3577.png
cornet-s,4,58,NaN,clock,clock,0,3898_lp_dnn_0_clock_10_n04548280_1200.png
cornet-s,4,59,NaN,clock,clock,0,3899_lp_dnn_0_clock_10_n02708093_5158.png
cornet-s,4,60,NaN,clock,clock,0,3900_lp_dnn_0_clock_10_n04548280_1240.png
cornet-s,4,61,NaN,oven,oven,0,3901_lp_dnn_0_oven_10_n04111531_17781.png
cornet-s,4,62,NaN,oven,oven,0,3902_lp_dnn_0_oven_10_n04111531_16198.png
cornet-s,4,63,NaN,oven,oven,0,3903_lp_dnn_0_oven_10_n04111531_2350.png
cornet-s,4,64,NaN,oven,oven,0,3904_lp_dnn_0_oven_10_n04111531_3777.png
cornet-s,4,65,NaN,oven,oven,0,3905_lp_dnn_0_oven_10_n04111531_8531.png
cornet-s,4,66,NaN,oven,oven,0,3906_lp_dnn_0_oven_10_n04111531_3348.png
cornet-s,4,67,NaN,oven,oven,0,3907_lp_dnn_0_oven_10_n04111531_1798.png
cornet-s,4,68,NaN,oven,oven,0,3908_lp_dnn_0_oven_10_n04111531_16696.png
cornet-s,4,69,NaN,oven,oven,0,3909_lp_dnn_0_oven_10_n04111531_7168.png
cornet-s,4,70,NaN,oven,oven,0,3910_lp_dnn_0_oven_10_n04111531_10419.png
cornet-s,4,71,NaN,chair,chair,0,3911_lp_dnn_0_chair_10_n02791124_16913.png
cornet-s,4,72,NaN,chair,chair,0,3912_lp_dnn_0_chair_10_n03376595_839.png
cornet-s,4,73,NaN,chair,chair,0,3913_lp_dnn_0_chair_10_n02791124_6390.png
cornet-s,4,74,NaN,chair,chair,0,3914_lp_dnn_0_chair_10_n03376595_4912.png
cornet-s,4,75,NaN,chair,chair,0,3915_lp_dnn_0_chair_10_n02791124_139.png
cornet-s,4,76,NaN,chair,chair,0,3916_lp_dnn_0_chair_10_n04099969_3109.png
cornet-s,4,77,NaN,chair,chair,0,3917_lp_dnn_0_chair_10_n04429376_9916.png
cornet-s,4,78,NaN,chair,chair,0,3918_lp_dnn_0_chair_10_n04099969_2127.png
cornet-s,4,79,NaN,chair,chair,0,3919_lp_dnn_0_chair_10_n04429376_1169.png
cornet-s,4,80,NaN,chair,chair,0,3920_lp_dnn_0_chair_10_n04099969_7054.png
cornet-s,4,81,NaN,bear,bear,0,3921_lp_dnn_0_bear_10_n02133161_334.png
cornet-s,4,82,NaN,bear,bear,0,3922_lp_dnn_0_bear_10_n02134084_8054.png
cornet-s,4,83,NaN,bear,bear,0,3923_lp_dnn_0_bear_10_n02134084_474.png
cornet-s,4,84,NaN,bear,bear,0,3924_lp_dnn_0_bear_10_n02132136_1621.png
cornet-s,4,85,NaN,bear,bear,0,3925_lp_dnn_0_bear_10_n02134418_4076.png
cornet-s,4,86,NaN,bear,bear,0,3926_lp_dnn_0_bear_10_n02133161_1872.png
cornet-s,4,87,NaN,bear,bear,0,3927_lp_dnn_0_bear_10_n02134084_9176.png
cornet-s,4,88,NaN,bear,bear,0,3928_lp_dnn_0_bear_10_n02133161_9583.png
cornet-s,4,89,NaN,bear,bear,0,3929_lp_dnn_0_bear_10_n02132136_3202.png
cornet-s,4,90,NaN,bear,bear,0,3930_lp_dnn_0_bear_10_n02132136_4271.png
cornet-s,4,91,NaN,boat,boat,0,3931_lp_dnn_0_boat_10_n02951358_15124.png
cornet-s,4,92,NaN,boat,boat,0,3932_lp_dnn_0_boat_10_n02951358_7581.png
cornet-s,4,93,NaN,boat,boat,0,3933_lp_dnn_0_boat_10_n02951358_34786.png
cornet-s,4,94,NaN,boat,boat,0,3934_lp_dnn_0_boat_10_n02951358_14839.png
cornet-s,4,95,NaN,boat,boat,0,3935_lp_dnn_0_boat_10_n02951358_5295.png
cornet-s,4,96,NaN,boat,boat,0,3936_lp_dnn_0_boat_10_n04612504_17263.png
cornet-s,4,97,NaN,boat,boat,0,3937_lp_dnn_0_boat_10_n04612504_13446.png
cornet-s,4,98,NaN,truck,boat,0,3938_lp_dnn_0_boat_10_n04273569_6052.png
cornet-s,4,99,NaN,boat,boat,0,3939_lp_dnn_0_boat_10_n04273569_219.png
cornet-s,4,100,NaN,boat,boat,0,3940_lp_dnn_0_boat_10_n02951358_35651.png
cornet-s,4,101,NaN,cat,cat,0,3941_lp_dnn_0_cat_10_n02124075_4453.png
cornet-s,4,102,NaN,cat,cat,0,3942_lp_dnn_0_cat_10_n02125311_23118.png
cornet-s,4,103,NaN,cat,cat,0,3943_lp_dnn_0_cat_10_n02123159_6654.png
cornet-s,4,104,NaN,cat,cat,0,3944_lp_dnn_0_cat_10_n02123597_6706.png
cornet-s,4,105,NaN,cat,cat,0,3945_lp_dnn_0_cat_10_n02123394_2063.png
cornet-s,4,106,NaN,cat,cat,0,3946_lp_dnn_0_cat_10_n02123159_407.png
cornet-s,4,107,NaN,cat,cat,0,3947_lp_dnn_0_cat_10_n02125311_11424.png
cornet-s,4,108,NaN,cat,cat,0,3948_lp_dnn_0_cat_10_n02123597_13784.png
cornet-s,4,109,NaN,cat,cat,0,3949_lp_dnn_0_cat_10_n02125311_19535.png
cornet-s,4,110,NaN,cat,cat,0,3950_lp_dnn_0_cat_10_n02123045_1105.png
cornet-s,4,111,NaN,bottle,bottle,0,3951_lp_dnn_0_bottle_10_n04557648_6315.png
cornet-s,4,112,NaN,bottle,bottle,0,3952_lp_dnn_0_bottle_10_n04591713_3605.png
cornet-s,4,113,NaN,bottle,bottle,0,3953_lp_dnn_0_bottle_10_n04591713_2129.png
cornet-s,4,114,NaN,bottle,bottle,0,3954_lp_dnn_0_bottle_10_n04560804_32775.png
cornet-s,4,115,NaN,bottle,bottle,0,3955_lp_dnn_0_bottle_10_n03937543_844.png
cornet-s,4,116,NaN,bottle,bottle,0,3956_lp_dnn_0_bottle_10_n04579145_2471.png
cornet-s,4,117,NaN,bottle,bottle,0,3957_lp_dnn_0_bottle_10_n03983396_20591.png
cornet-s,4,118,NaN,bottle,bottle,0,3958_lp_dnn_0_bottle_10_n04591713_4184.png
cornet-s,4,119,NaN,bottle,bottle,0,3959_lp_dnn_0_bottle_10_n04579145_6578.png
cornet-s,4,120,NaN,bottle,bottle,0,3960_lp_dnn_0_bottle_10_n04591713_6980.png
cornet-s,4,121,NaN,truck,truck,0,3961_lp_dnn_0_truck_10_n03417042_1875.png
cornet-s,4,122,NaN,truck,truck,0,3962_lp_dnn_0_truck_10_n04467665_30588.png
cornet-s,4,123,NaN,truck,truck,0,3963_lp_dnn_0_truck_10_n04467665_24756.png
cornet-s,4,124,NaN,truck,truck,0,3964_lp_dnn_0_truck_10_n03417042_5225.png
cornet-s,4,125,NaN,truck,truck,0,3965_lp_dnn_0_truck_10_n03796401_4450.png
cornet-s,4,126,NaN,truck,truck,0,3966_lp_dnn_0_truck_10_n03796401_1758.png
cornet-s,4,127,NaN,truck,truck,0,3967_lp_dnn_0_truck_10_n03417042_7544.png
cornet-s,4,128,NaN,truck,truck,0,3968_lp_dnn_0_truck_10_n04467665_66535.png
cornet-s,4,129,NaN,truck,truck,0,3969_lp_dnn_0_truck_10_n03417042_1015.png
cornet-s,4,130,NaN,truck,truck,0,3970_lp_dnn_0_truck_10_n03796401_25102.png
cornet-s,4,131,NaN,car,car,0,3971_lp_dnn_0_car_10_n02814533_27588.png
cornet-s,4,132,NaN,car,car,0,3972_lp_dnn_0_car_10_n02814533_1619.png
cornet-s,4,133,NaN,car,car,0,3973_lp_dnn_0_car_10_n03100240_18421.png
cornet-s,4,134,NaN,car,car,0,3974_lp_dnn_0_car_10_n02814533_51647.png
cornet-s,4,135,NaN,car,car,0,3975_lp_dnn_0_car_10_n02814533_84354.png
cornet-s,4,136,NaN,car,car,0,3976_lp_dnn_0_car_10_n03100240_6243.png
cornet-s,4,137,NaN,car,car,0,3977_lp_dnn_0_car_10_n03100240_1326.png
cornet-s,4,138,NaN,car,car,0,3978_lp_dnn_0_car_10_n02814533_92353.png
cornet-s,4,139,NaN,car,car,0,3979_lp_dnn_0_car_10_n02814533_15651.png
cornet-s,4,140,NaN,car,car,0,3980_lp_dnn_0_car_10_n04285008_2081.png
cornet-s,4,141,NaN,bird,bird,0,3981_lp_dnn_0_bird_10_n01601694_16593.png
cornet-s,4,142,NaN,bird,bird,0,3982_lp_dnn_0_bird_10_n02006656_3185.png
cornet-s,4,143,NaN,bird,bird,0,3983_lp_dnn_0_bird_10_n02028035_23605.png
cornet-s,4,144,NaN,bird,bird,0,3984_lp_dnn_0_bird_10_n01843383_6980.png
cornet-s,4,145,NaN,bird,bird,0,3985_lp_dnn_0_bird_10_n01592084_5179.png
cornet-s,4,146,NaN,bird,bird,0,3986_lp_dnn_0_bird_10_n01843065_9424.png
cornet-s,4,147,NaN,bird,bird,0,3987_lp_dnn_0_bird_10_n02056570_6936.png
cornet-s,4,148,NaN,bird,bird,0,3988_lp_dnn_0_bird_10_n02018207_141.png
cornet-s,4,149,NaN,bird,bird,0,3989_lp_dnn_0_bird_10_n01796340_2456.png
cornet-s,4,150,NaN,bird,bird,0,3990_lp_dnn_0_bird_10_n01798484_13486.png
cornet-s,4,151,NaN,dog,dog,0,3991_lp_dnn_0_dog_10_n02102318_11051.png
cornet-s,4,152,NaN,dog,dog,0,3992_lp_dnn_0_dog_10_n02097298_5605.png
cornet-s,4,153,NaN,dog,dog,0,3993_lp_dnn_0_dog_10_n02093859_4185.png
cornet-s,4,154,NaN,dog,dog,0,3994_lp_dnn_0_dog_10_n02105251_3424.png
cornet-s,4,155,NaN,dog,dog,0,3995_lp_dnn_0_dog_10_n02088632_2837.png
cornet-s,4,156,NaN,dog,dog,0,3996_lp_dnn_0_dog_10_n02102040_108.png
cornet-s,4,157,NaN,dog,dog,0,3997_lp_dnn_0_dog_10_n02088238_6602.png
cornet-s,4,158,NaN,dog,dog,0,3998_lp_dnn_0_dog_10_n02088466_12238.png
cornet-s,4,159,NaN,dog,dog,0,3999_lp_dnn_0_dog_10_n02093428_7924.png
cornet-s,4,160,NaN,dog,dog,0,4000_lp_dnn_0_dog_10_n02107908_12088.png
cornet-s,4,161,NaN,knife,knife,1,4001_lp_dnn_1_knife_10_n03041632_22988.png
cornet-s,4,162,NaN,knife,knife,1,4002_lp_dnn_1_knife_10_n03041632_3247.png
cornet-s,4,163,NaN,knife,knife,1,4003_lp_dnn_1_knife_10_n03041632_40508.png
cornet-s,4,164,NaN,knife,knife,1,4004_lp_dnn_1_knife_10_n03041632_11969.png
cornet-s,4,165,NaN,knife,knife,1,4005_lp_dnn_1_knife_10_n03041632_45338.png
cornet-s,4,166,NaN,chair,knife,1,4006_lp_dnn_1_knife_10_n03041632_105581.png
cornet-s,4,167,NaN,knife,knife,1,4007_lp_dnn_1_knife_10_n03041632_56172.png
cornet-s,4,168,NaN,chair,knife,1,4008_lp_dnn_1_knife_10_n03041632_20217.png
cornet-s,4,169,NaN,knife,knife,1,4009_lp_dnn_1_knife_10_n03041632_82878.png
cornet-s,4,170,NaN,knife,knife,1,4010_lp_dnn_1_knife_10_n03041632_20413.png
cornet-s,4,171,NaN,keyboard,keyboard,1,4011_lp_dnn_1_keyboard_10_n03085013_15995.png
cornet-s,4,172,NaN,keyboard,keyboard,1,4012_lp_dnn_1_keyboard_10_n03085013_21807.png
cornet-s,4,173,NaN,keyboard,keyboard,1,4013_lp_dnn_1_keyboard_10_n04505470_3071.png
cornet-s,4,174,NaN,keyboard,keyboard,1,4014_lp_dnn_1_keyboard_10_n03085013_2676.png
cornet-s,4,175,NaN,keyboard,keyboard,1,4015_lp_dnn_1_keyboard_10_n04505470_4515.png
cornet-s,4,176,NaN,keyboard,keyboard,1,4016_lp_dnn_1_keyboard_10_n04505470_489.png
cornet-s,4,177,NaN,keyboard,keyboard,1,4017_lp_dnn_1_keyboard_10_n03085013_16636.png
cornet-s,4,178,NaN,keyboard,keyboard,1,4018_lp_dnn_1_keyboard_10_n03085013_5726.png
cornet-s,4,179,NaN,keyboard,keyboard,1,4019_lp_dnn_1_keyboard_10_n03085013_24150.png
cornet-s,4,180,NaN,keyboard,keyboard,1,4020_lp_dnn_1_keyboard_10_n04505470_4951.png
cornet-s,4,181,NaN,elephant,elephant,1,4021_lp_dnn_1_elephant_10_n02504013_10437.png
cornet-s,4,182,NaN,elephant,elephant,1,4022_lp_dnn_1_elephant_10_n02504458_12191.png
cornet-s,4,183,NaN,elephant,elephant,1,4023_lp_dnn_1_elephant_10_n02504458_12582.png
cornet-s,4,184,NaN,elephant,elephant,1,4024_lp_dnn_1_elephant_10_n02504458_2264.png
cornet-s,4,185,NaN,elephant,elephant,1,4025_lp_dnn_1_elephant_10_n02504458_6909.png
cornet-s,4,186,NaN,elephant,elephant,1,4026_lp_dnn_1_elephant_10_n02504013_8930.png
cornet-s,4,187,NaN,elephant,elephant,1,4027_lp_dnn_1_elephant_10_n02504458_11511.png
cornet-s,4,188,NaN,elephant,elephant,1,4028_lp_dnn_1_elephant_10_n02504013_9566.png
cornet-s,4,189,NaN,elephant,elephant,1,4029_lp_dnn_1_elephant_10_n02504013_7497.png
cornet-s,4,190,NaN,elephant,elephant,1,4030_lp_dnn_1_elephant_10_n02504013_9362.png
cornet-s,4,191,NaN,bicycle,bicycle,1,4031_lp_dnn_1_bicycle_10_n02835271_2686.png
cornet-s,4,192,NaN,bicycle,bicycle,1,4032_lp_dnn_1_bicycle_10_n02835271_8549.png
cornet-s,4,193,NaN,bicycle,bicycle,1,4033_lp_dnn_1_bicycle_10_n02835271_14361.png
cornet-s,4,194,NaN,bicycle,bicycle,1,4034_lp_dnn_1_bicycle_10_n02835271_23173.png
cornet-s,4,195,NaN,bicycle,bicycle,1,4035_lp_dnn_1_bicycle_10_n02835271_20099.png
cornet-s,4,196,NaN,bicycle,bicycle,1,4036_lp_dnn_1_bicycle_10_n02835271_12843.png
cornet-s,4,197,NaN,bicycle,bicycle,1,4037_lp_dnn_1_bicycle_10_n02835271_6481.png
cornet-s,4,198,NaN,bicycle,bicycle,1,4038_lp_dnn_1_bicycle_10_n03792782_3202.png
cornet-s,4,199,NaN,bicycle,bicycle,1,4039_lp_dnn_1_bicycle_10_n03792782_15059.png
cornet-s,4,200,NaN,bicycle,bicycle,1,4040_lp_dnn_1_bicycle_10_n03792782_2263.png
cornet-s,4,201,NaN,airplane,airplane,1,4041_lp_dnn_1_airplane_10_n02690373_9.png
cornet-s,4,202,NaN,airplane,airplane,1,4042_lp_dnn_1_airplane_10_n02690373_13609.png
cornet-s,4,203,NaN,airplane,airplane,1,4043_lp_dnn_1_airplane_10_n02690373_8613.png
cornet-s,4,204,NaN,airplane,airplane,1,4044_lp_dnn_1_airplane_10_n02690373_757.png
cornet-s,4,205,NaN,airplane,airplane,1,4045_lp_dnn_1_airplane_10_n02690373_4945.png
cornet-s,4,206,NaN,airplane,airplane,1,4046_lp_dnn_1_airplane_10_n02690373_3750.png
cornet-s,4,207,NaN,airplane,airplane,1,4047_lp_dnn_1_airplane_10_n02690373_1074.png
cornet-s,4,208,NaN,airplane,airplane,1,4048_lp_dnn_1_airplane_10_n02690373_2750.png
cornet-s,4,209,NaN,airplane,airplane,1,4049_lp_dnn_1_airplane_10_n02690373_4144.png
cornet-s,4,210,NaN,airplane,airplane,1,4050_lp_dnn_1_airplane_10_n02690373_5992.png
cornet-s,4,211,NaN,chair,clock,1,4051_lp_dnn_1_clock_10_n04548280_4.png
cornet-s,4,212,NaN,clock,clock,1,4052_lp_dnn_1_clock_10_n04548280_5074.png
cornet-s,4,213,NaN,clock,clock,1,4053_lp_dnn_1_clock_10_n04548280_98.png
cornet-s,4,214,NaN,clock,clock,1,4054_lp_dnn_1_clock_10_n04548280_2451.png
cornet-s,4,215,NaN,clock,clock,1,4055_lp_dnn_1_clock_10_n03196217_4434.png
cornet-s,4,216,NaN,clock,clock,1,4056_lp_dnn_1_clock_10_n04548280_3047.png
cornet-s,4,217,NaN,clock,clock,1,4057_lp_dnn_1_clock_10_n04548280_3234.png
cornet-s,4,218,NaN,clock,clock,1,4058_lp_dnn_1_clock_10_n02708093_1282.png
cornet-s,4,219,NaN,clock,clock,1,4059_lp_dnn_1_clock_10_n02708093_148.png
cornet-s,4,220,NaN,clock,clock,1,4060_lp_dnn_1_clock_10_n04548280_4354.png
cornet-s,4,221,NaN,oven,oven,1,4061_lp_dnn_1_oven_10_n04111531_5429.png
cornet-s,4,222,NaN,clock,oven,1,4062_lp_dnn_1_oven_10_n04111531_9178.png
cornet-s,4,223,NaN,oven,oven,1,4063_lp_dnn_1_oven_10_n04111531_9867.png
cornet-s,4,224,NaN,bicycle,oven,1,4064_lp_dnn_1_oven_10_n04111531_22704.png
cornet-s,4,225,NaN,oven,oven,1,4065_lp_dnn_1_oven_10_n04111531_10220.png
cornet-s,4,226,NaN,oven,oven,1,4066_lp_dnn_1_oven_10_n04111531_4332.png
cornet-s,4,227,NaN,oven,oven,1,4067_lp_dnn_1_oven_10_n04111531_3072.png
cornet-s,4,228,NaN,oven,oven,1,4068_lp_dnn_1_oven_10_n04111531_1612.png
cornet-s,4,229,NaN,oven,oven,1,4069_lp_dnn_1_oven_10_n04111531_891.png
cornet-s,4,230,NaN,oven,oven,1,4070_lp_dnn_1_oven_10_n04111531_8917.png
cornet-s,4,231,NaN,chair,chair,1,4071_lp_dnn_1_chair_10_n02791124_5822.png
cornet-s,4,232,NaN,chair,chair,1,4072_lp_dnn_1_chair_10_n02791124_4174.png
cornet-s,4,233,NaN,chair,chair,1,4073_lp_dnn_1_chair_10_n04099969_16159.png
cornet-s,4,234,NaN,chair,chair,1,4074_lp_dnn_1_chair_10_n03376595_3268.png
cornet-s,4,235,NaN,chair,chair,1,4075_lp_dnn_1_chair_10_n04099969_12099.png
cornet-s,4,236,NaN,chair,chair,1,4076_lp_dnn_1_chair_10_n03376595_17211.png
cornet-s,4,237,NaN,chair,chair,1,4077_lp_dnn_1_chair_10_n02791124_15675.png
cornet-s,4,238,NaN,clock,chair,1,4078_lp_dnn_1_chair_10_n04429376_2592.png
cornet-s,4,239,NaN,chair,chair,1,4079_lp_dnn_1_chair_10_n04429376_10597.png
cornet-s,4,240,NaN,chair,chair,1,4080_lp_dnn_1_chair_10_n03376595_9079.png
cornet-s,4,241,NaN,bear,bear,1,4081_lp_dnn_1_bear_10_n02134084_4818.png
cornet-s,4,242,NaN,bear,bear,1,4082_lp_dnn_1_bear_10_n02134084_404.png
cornet-s,4,243,NaN,oven,bear,1,4083_lp_dnn_1_bear_10_n02132136_1795.png
cornet-s,4,244,NaN,truck,bear,1,4084_lp_dnn_1_bear_10_n02134418_4042.png
cornet-s,4,245,NaN,bear,bear,1,4085_lp_dnn_1_bear_10_n02134084_6845.png
cornet-s,4,246,NaN,bear,bear,1,4086_lp_dnn_1_bear_10_n02134084_7649.png
cornet-s,4,247,NaN,bear,bear,1,4087_lp_dnn_1_bear_10_n02133161_3181.png
cornet-s,4,248,NaN,bear,bear,1,4088_lp_dnn_1_bear_10_n02134418_1153.png
cornet-s,4,249,NaN,bear,bear,1,4089_lp_dnn_1_bear_10_n02132136_5138.png
cornet-s,4,250,NaN,bear,bear,1,4090_lp_dnn_1_bear_10_n02133161_1892.png
cornet-s,4,251,NaN,boat,boat,1,4091_lp_dnn_1_boat_10_n02951358_6378.png
cornet-s,4,252,NaN,boat,boat,1,4092_lp_dnn_1_boat_10_n03344393_2412.png
cornet-s,4,253,NaN,boat,boat,1,4093_lp_dnn_1_boat_10_n03662601_4844.png
cornet-s,4,254,NaN,boat,boat,1,4094_lp_dnn_1_boat_10_n03662601_3984.png
cornet-s,4,255,NaN,boat,boat,1,4095_lp_dnn_1_boat_10_n03662601_2052.png
cornet-s,4,256,NaN,boat,boat,1,4096_lp_dnn_1_boat_10_n03344393_4412.png
cornet-s,4,257,NaN,boat,boat,1,4097_lp_dnn_1_boat_10_n03662601_5849.png
cornet-s,4,258,NaN,boat,boat,1,4098_lp_dnn_1_boat_10_n03344393_6505.png
cornet-s,4,259,NaN,boat,boat,1,4099_lp_dnn_1_boat_10_n03344393_1422.png
cornet-s,4,260,NaN,boat,boat,1,4100_lp_dnn_1_boat_10_n03662601_5118.png
cornet-s,4,261,NaN,cat,cat,1,4101_lp_dnn_1_cat_10_n02123045_11601.png
cornet-s,4,262,NaN,cat,cat,1,4102_lp_dnn_1_cat_10_n02123159_6046.png
cornet-s,4,263,NaN,cat,cat,1,4103_lp_dnn_1_cat_10_n02123159_3918.png
cornet-s,4,264,NaN,cat,cat,1,4104_lp_dnn_1_cat_10_n02123045_1529.png
cornet-s,4,265,NaN,cat,cat,1,4105_lp_dnn_1_cat_10_n02123597_3501.png
cornet-s,4,266,NaN,dog,cat,1,4106_lp_dnn_1_cat_10_n02123394_5708.png
cornet-s,4,267,NaN,cat,cat,1,4107_lp_dnn_1_cat_10_n02125311_42530.png
cornet-s,4,268,NaN,cat,cat,1,4108_lp_dnn_1_cat_10_n02124075_4649.png
cornet-s,4,269,NaN,cat,cat,1,4109_lp_dnn_1_cat_10_n02123394_2434.png
cornet-s,4,270,NaN,cat,cat,1,4110_lp_dnn_1_cat_10_n02123597_4800.png
cornet-s,4,271,NaN,bottle,bottle,1,4111_lp_dnn_1_bottle_10_n04579145_3112.png
cornet-s,4,272,NaN,bottle,bottle,1,4112_lp_dnn_1_bottle_10_n04591713_9352.png
cornet-s,4,273,NaN,knife,bottle,1,4113_lp_dnn_1_bottle_10_n04560804_21983.png
cornet-s,4,274,NaN,bottle,bottle,1,4114_lp_dnn_1_bottle_10_n03983396_3526.png
cornet-s,4,275,NaN,bottle,bottle,1,4115_lp_dnn_1_bottle_10_n03983396_7361.png
cornet-s,4,276,NaN,bottle,bottle,1,4116_lp_dnn_1_bottle_10_n03983396_168.png
cornet-s,4,277,NaN,bottle,bottle,1,4117_lp_dnn_1_bottle_10_n04579145_5795.png
cornet-s,4,278,NaN,bottle,bottle,1,4118_lp_dnn_1_bottle_10_n03983396_6555.png
cornet-s,4,279,NaN,bottle,bottle,1,4119_lp_dnn_1_bottle_10_n04591713_3399.png
cornet-s,4,280,NaN,bottle,bottle,1,4120_lp_dnn_1_bottle_10_n02823428_14897.png
cornet-s,4,281,NaN,airplane,truck,1,4121_lp_dnn_1_truck_10_n04467665_2559.png
cornet-s,4,282,NaN,truck,truck,1,4122_lp_dnn_1_truck_10_n04467665_10060.png
cornet-s,4,283,NaN,truck,truck,1,4123_lp_dnn_1_truck_10_n03417042_14567.png
cornet-s,4,284,NaN,truck,truck,1,4124_lp_dnn_1_truck_10_n04467665_48928.png
cornet-s,4,285,NaN,truck,truck,1,4125_lp_dnn_1_truck_10_n03796401_12028.png
cornet-s,4,286,NaN,truck,truck,1,4126_lp_dnn_1_truck_10_n03417042_8872.png
cornet-s,4,287,NaN,truck,truck,1,4127_lp_dnn_1_truck_10_n03417042_22297.png
cornet-s,4,288,NaN,truck,truck,1,4128_lp_dnn_1_truck_10_n03417042_7204.png
cornet-s,4,289,NaN,truck,truck,1,4129_lp_dnn_1_truck_10_n03417042_3003.png
cornet-s,4,290,NaN,truck,truck,1,4130_lp_dnn_1_truck_10_n03796401_588.png
cornet-s,4,291,NaN,car,car,1,4131_lp_dnn_1_car_10_n03100240_17986.png
cornet-s,4,292,NaN,car,car,1,4132_lp_dnn_1_car_10_n04285008_9675.png
cornet-s,4,293,NaN,truck,car,1,4133_lp_dnn_1_car_10_n03100240_966.png
cornet-s,4,294,NaN,car,car,1,4134_lp_dnn_1_car_10_n04285008_1573.png
cornet-s,4,295,NaN,car,car,1,4135_lp_dnn_1_car_10_n02814533_5357.png
cornet-s,4,296,NaN,car,car,1,4136_lp_dnn_1_car_10_n04285008_903.png
cornet-s,4,297,NaN,car,car,1,4137_lp_dnn_1_car_10_n02814533_76739.png
cornet-s,4,298,NaN,car,car,1,4138_lp_dnn_1_car_10_n04285008_6313.png
cornet-s,4,299,NaN,car,car,1,4139_lp_dnn_1_car_10_n02814533_39823.png
cornet-s,4,300,NaN,car,car,1,4140_lp_dnn_1_car_10_n03100240_8113.png
cornet-s,4,301,NaN,bird,bird,1,4141_lp_dnn_1_bird_10_n01560419_751.png
cornet-s,4,302,NaN,bird,bird,1,4142_lp_dnn_1_bird_10_n02018207_5441.png
cornet-s,4,303,NaN,bird,bird,1,4143_lp_dnn_1_bird_10_n01558993_11761.png
cornet-s,4,304,NaN,bird,bird,1,4144_lp_dnn_1_bird_10_n02018795_12419.png
cornet-s,4,305,NaN,bird,bird,1,4145_lp_dnn_1_bird_10_n01560419_13139.png
cornet-s,4,306,NaN,bird,bird,1,4146_lp_dnn_1_bird_10_n01534433_511.png
cornet-s,4,307,NaN,bird,bird,1,4147_lp_dnn_1_bird_10_n01860187_8430.png
cornet-s,4,308,NaN,bird,bird,1,4148_lp_dnn_1_bird_10_n01532829_4422.png
cornet-s,4,309,NaN,bird,bird,1,4149_lp_dnn_1_bird_10_n02009912_7241.png
cornet-s,4,310,NaN,bird,bird,1,4150_lp_dnn_1_bird_10_n02056570_3283.png
cornet-s,4,311,NaN,dog,dog,1,4151_lp_dnn_1_dog_10_n02096051_6470.png
cornet-s,4,312,NaN,dog,dog,1,4152_lp_dnn_1_dog_10_n02086910_2151.png
cornet-s,4,313,NaN,dog,dog,1,4153_lp_dnn_1_dog_10_n02100236_8040.png
cornet-s,4,314,NaN,dog,dog,1,4154_lp_dnn_1_dog_10_n02113799_9895.png
cornet-s,4,315,NaN,dog,dog,1,4155_lp_dnn_1_dog_10_n02098105_6709.png
cornet-s,4,316,NaN,dog,dog,1,4156_lp_dnn_1_dog_10_n02107142_45488.png
cornet-s,4,317,NaN,dog,dog,1,4157_lp_dnn_1_dog_10_n02107683_3586.png
cornet-s,4,318,NaN,dog,dog,1,4158_lp_dnn_1_dog_10_n02091134_17063.png
cornet-s,4,319,NaN,dog,dog,1,4159_lp_dnn_1_dog_10_n02107312_3521.png
cornet-s,4,320,NaN,bicycle,dog,1,4160_lp_dnn_1_dog_10_n02087046_6273.png
cornet-s,4,321,NaN,knife,knife,3,4161_lp_dnn_3_knife_10_n03041632_5102.png
cornet-s,4,322,NaN,knife,knife,3,4162_lp_dnn_3_knife_10_n03041632_47743.png
cornet-s,4,323,NaN,knife,knife,3,4163_lp_dnn_3_knife_10_n03041632_45264.png
cornet-s,4,324,NaN,knife,knife,3,4164_lp_dnn_3_knife_10_n03041632_46720.png
cornet-s,4,325,NaN,clock,knife,3,4165_lp_dnn_3_knife_10_n03041632_7380.png
cornet-s,4,326,NaN,truck,knife,3,4166_lp_dnn_3_knife_10_n03041632_19866.png
cornet-s,4,327,NaN,clock,knife,3,4167_lp_dnn_3_knife_10_n03041632_2483.png
cornet-s,4,328,NaN,knife,knife,3,4168_lp_dnn_3_knife_10_n03041632_11932.png
cornet-s,4,329,NaN,keyboard,knife,3,4169_lp_dnn_3_knife_10_n03041632_52702.png
cornet-s,4,330,NaN,knife,knife,3,4170_lp_dnn_3_knife_10_n03041632_38610.png
cornet-s,4,331,NaN,keyboard,keyboard,3,4171_lp_dnn_3_keyboard_10_n03085013_805.png
cornet-s,4,332,NaN,keyboard,keyboard,3,4172_lp_dnn_3_keyboard_10_n04505470_4965.png
cornet-s,4,333,NaN,keyboard,keyboard,3,4173_lp_dnn_3_keyboard_10_n04505470_312.png
cornet-s,4,334,NaN,oven,keyboard,3,4174_lp_dnn_3_keyboard_10_n03085013_24577.png
cornet-s,4,335,NaN,keyboard,keyboard,3,4175_lp_dnn_3_keyboard_10_n04505470_4324.png
cornet-s,4,336,NaN,knife,keyboard,3,4176_lp_dnn_3_keyboard_10_n03085013_23350.png
cornet-s,4,337,NaN,keyboard,keyboard,3,4177_lp_dnn_3_keyboard_10_n04505470_3957.png
cornet-s,4,338,NaN,keyboard,keyboard,3,4178_lp_dnn_3_keyboard_10_n04505470_4422.png
cornet-s,4,339,NaN,keyboard,keyboard,3,4179_lp_dnn_3_keyboard_10_n03085013_7536.png
cornet-s,4,340,NaN,keyboard,keyboard,3,4180_lp_dnn_3_keyboard_10_n03085013_25800.png
cornet-s,4,341,NaN,elephant,elephant,3,4181_lp_dnn_3_elephant_10_n02504458_6301.png
cornet-s,4,342,NaN,elephant,elephant,3,4182_lp_dnn_3_elephant_10_n02504458_1893.png
cornet-s,4,343,NaN,dog,elephant,3,4183_lp_dnn_3_elephant_10_n02504013_5774.png
cornet-s,4,344,NaN,elephant,elephant,3,4184_lp_dnn_3_elephant_10_n02504013_1879.png
cornet-s,4,345,NaN,elephant,elephant,3,4185_lp_dnn_3_elephant_10_n02504013_10965.png
cornet-s,4,346,NaN,boat,elephant,3,4186_lp_dnn_3_elephant_10_n02504458_7063.png
cornet-s,4,347,NaN,elephant,elephant,3,4187_lp_dnn_3_elephant_10_n02504013_438.png
cornet-s,4,348,NaN,elephant,elephant,3,4188_lp_dnn_3_elephant_10_n02504458_8291.png
cornet-s,4,349,NaN,elephant,elephant,3,4189_lp_dnn_3_elephant_10_n02504013_2893.png
cornet-s,4,350,NaN,elephant,elephant,3,4190_lp_dnn_3_elephant_10_n02504458_3068.png
cornet-s,4,351,NaN,clock,bicycle,3,4191_lp_dnn_3_bicycle_10_n02835271_158.png
cornet-s,4,352,NaN,bicycle,bicycle,3,4192_lp_dnn_3_bicycle_10_n02835271_22948.png
cornet-s,4,353,NaN,chair,bicycle,3,4193_lp_dnn_3_bicycle_10_n02835271_20558.png
cornet-s,4,354,NaN,bicycle,bicycle,3,4194_lp_dnn_3_bicycle_10_n02835271_5001.png
cornet-s,4,355,NaN,bicycle,bicycle,3,4195_lp_dnn_3_bicycle_10_n03792782_23764.png
cornet-s,4,356,NaN,bicycle,bicycle,3,4196_lp_dnn_3_bicycle_10_n02835271_12544.png
cornet-s,4,357,NaN,bicycle,bicycle,3,4197_lp_dnn_3_bicycle_10_n02835271_9260.png
cornet-s,4,358,NaN,keyboard,bicycle,3,4198_lp_dnn_3_bicycle_10_n03792782_16379.png
cornet-s,4,359,NaN,keyboard,bicycle,3,4199_lp_dnn_3_bicycle_10_n02835271_9216.png
cornet-s,4,360,NaN,bicycle,bicycle,3,4200_lp_dnn_3_bicycle_10_n02835271_1721.png
cornet-s,4,361,NaN,truck,airplane,3,4201_lp_dnn_3_airplane_10_n02690373_8527.png
cornet-s,4,362,NaN,airplane,airplane,3,4202_lp_dnn_3_airplane_10_n02690373_4714.png
cornet-s,4,363,NaN,knife,airplane,3,4203_lp_dnn_3_airplane_10_n02690373_2130.png
cornet-s,4,364,NaN,airplane,airplane,3,4204_lp_dnn_3_airplane_10_n02690373_2408.png
cornet-s,4,365,NaN,airplane,airplane,3,4205_lp_dnn_3_airplane_10_n02690373_961.png
cornet-s,4,366,NaN,airplane,airplane,3,4206_lp_dnn_3_airplane_10_n02690373_1891.png
cornet-s,4,367,NaN,airplane,airplane,3,4207_lp_dnn_3_airplane_10_n02690373_6567.png
cornet-s,4,368,NaN,airplane,airplane,3,4208_lp_dnn_3_airplane_10_n02690373_6773.png
cornet-s,4,369,NaN,airplane,airplane,3,4209_lp_dnn_3_airplane_10_n02690373_4202.png
cornet-s,4,370,NaN,airplane,airplane,3,4210_lp_dnn_3_airplane_10_n02690373_3928.png
cornet-s,4,371,NaN,clock,clock,3,4211_lp_dnn_3_clock_10_n04548280_3093.png
cornet-s,4,372,NaN,clock,clock,3,4212_lp_dnn_3_clock_10_n03196217_8792.png
cornet-s,4,373,NaN,clock,clock,3,4213_lp_dnn_3_clock_10_n04548280_5843.png
cornet-s,4,374,NaN,clock,clock,3,4214_lp_dnn_3_clock_10_n02708093_6664.png
cornet-s,4,375,NaN,clock,clock,3,4215_lp_dnn_3_clock_10_n04548280_994.png
cornet-s,4,376,NaN,clock,clock,3,4216_lp_dnn_3_clock_10_n03196217_194.png
cornet-s,4,377,NaN,clock,clock,3,4217_lp_dnn_3_clock_10_n04548280_3125.png
cornet-s,4,378,NaN,clock,clock,3,4218_lp_dnn_3_clock_10_n02708093_6595.png
cornet-s,4,379,NaN,bottle,clock,3,4219_lp_dnn_3_clock_10_n04548280_8883.png
cornet-s,4,380,NaN,clock,clock,3,4220_lp_dnn_3_clock_10_n04548280_20518.png
cornet-s,4,381,NaN,oven,oven,3,4221_lp_dnn_3_oven_10_n04111531_17045.png
cornet-s,4,382,NaN,knife,oven,3,4222_lp_dnn_3_oven_10_n04111531_4148.png
cornet-s,4,383,NaN,bottle,oven,3,4223_lp_dnn_3_oven_10_n04111531_22203.png
cornet-s,4,384,NaN,oven,oven,3,4224_lp_dnn_3_oven_10_n04111531_5991.png
cornet-s,4,385,NaN,truck,oven,3,4225_lp_dnn_3_oven_10_n04111531_8681.png
cornet-s,4,386,NaN,keyboard,oven,3,4226_lp_dnn_3_oven_10_n04111531_1938.png
cornet-s,4,387,NaN,chair,oven,3,4227_lp_dnn_3_oven_10_n04111531_7945.png
cornet-s,4,388,NaN,oven,oven,3,4228_lp_dnn_3_oven_10_n04111531_10722.png
cornet-s,4,389,NaN,truck,oven,3,4229_lp_dnn_3_oven_10_n04111531_12929.png
cornet-s,4,390,NaN,oven,oven,3,4230_lp_dnn_3_oven_10_n04111531_10336.png
cornet-s,4,391,NaN,chair,chair,3,4231_lp_dnn_3_chair_10_n04429376_6265.png
cornet-s,4,392,NaN,truck,chair,3,4232_lp_dnn_3_chair_10_n04099969_35740.png
cornet-s,4,393,NaN,oven,chair,3,4233_lp_dnn_3_chair_10_n02791124_1962.png
cornet-s,4,394,NaN,chair,chair,3,4234_lp_dnn_3_chair_10_n04099969_45461.png
cornet-s,4,395,NaN,chair,chair,3,4235_lp_dnn_3_chair_10_n03376595_8520.png
cornet-s,4,396,NaN,bicycle,chair,3,4236_lp_dnn_3_chair_10_n04099969_39773.png
cornet-s,4,397,NaN,chair,chair,3,4237_lp_dnn_3_chair_10_n03376595_4217.png
cornet-s,4,398,NaN,chair,chair,3,4238_lp_dnn_3_chair_10_n04099969_6940.png
cornet-s,4,399,NaN,chair,chair,3,4239_lp_dnn_3_chair_10_n03376595_4155.png
cornet-s,4,400,NaN,chair,chair,3,4240_lp_dnn_3_chair_10_n03376595_4354.png
cornet-s,4,401,NaN,bear,bear,3,4241_lp_dnn_3_bear_10_n02132136_5921.png
cornet-s,4,402,NaN,clock,bear,3,4242_lp_dnn_3_bear_10_n02134084_18679.png
cornet-s,4,403,NaN,bird,bear,3,4243_lp_dnn_3_bear_10_n02134418_2406.png
cornet-s,4,404,NaN,dog,bear,3,4244_lp_dnn_3_bear_10_n02134418_6016.png
cornet-s,4,405,NaN,bear,bear,3,4245_lp_dnn_3_bear_10_n02134084_12136.png
cornet-s,4,406,NaN,knife,bear,3,4246_lp_dnn_3_bear_10_n02134084_7095.png
cornet-s,4,407,NaN,bear,bear,3,4247_lp_dnn_3_bear_10_n02132136_32072.png
cornet-s,4,408,NaN,bear,bear,3,4248_lp_dnn_3_bear_10_n02133161_12893.png
cornet-s,4,409,NaN,dog,bear,3,4249_lp_dnn_3_bear_10_n02134418_11090.png
cornet-s,4,410,NaN,bear,bear,3,4250_lp_dnn_3_bear_10_n02133161_12868.png
cornet-s,4,411,NaN,boat,boat,3,4251_lp_dnn_3_boat_10_n03344393_1519.png
cornet-s,4,412,NaN,boat,boat,3,4252_lp_dnn_3_boat_10_n03344393_2167.png
cornet-s,4,413,NaN,airplane,boat,3,4253_lp_dnn_3_boat_10_n03662601_21690.png
cornet-s,4,414,NaN,boat,boat,3,4254_lp_dnn_3_boat_10_n04273569_5826.png
cornet-s,4,415,NaN,bottle,boat,3,4255_lp_dnn_3_boat_10_n02951358_12692.png
cornet-s,4,416,NaN,bottle,boat,3,4256_lp_dnn_3_boat_10_n02951358_35469.png
cornet-s,4,417,NaN,knife,boat,3,4257_lp_dnn_3_boat_10_n04273569_973.png
cornet-s,4,418,NaN,keyboard,boat,3,4258_lp_dnn_3_boat_10_n02951358_12663.png
cornet-s,4,419,NaN,knife,boat,3,4259_lp_dnn_3_boat_10_n02951358_13412.png
cornet-s,4,420,NaN,truck,boat,3,4260_lp_dnn_3_boat_10_n03662601_2417.png
cornet-s,4,421,NaN,cat,cat,3,4261_lp_dnn_3_cat_10_n02124075_14738.png
cornet-s,4,422,NaN,knife,cat,3,4262_lp_dnn_3_cat_10_n02123159_6997.png
cornet-s,4,423,NaN,cat,cat,3,4263_lp_dnn_3_cat_10_n02123597_12171.png
cornet-s,4,424,NaN,dog,cat,3,4264_lp_dnn_3_cat_10_n02123045_7471.png
cornet-s,4,425,NaN,knife,cat,3,4265_lp_dnn_3_cat_10_n02123159_1414.png
cornet-s,4,426,NaN,cat,cat,3,4266_lp_dnn_3_cat_10_n02123045_4522.png
cornet-s,4,427,NaN,truck,cat,3,4267_lp_dnn_3_cat_10_n02123159_4952.png
cornet-s,4,428,NaN,cat,cat,3,4268_lp_dnn_3_cat_10_n02123597_1367.png
cornet-s,4,429,NaN,cat,cat,3,4269_lp_dnn_3_cat_10_n02123159_650.png
cornet-s,4,430,NaN,oven,cat,3,4270_lp_dnn_3_cat_10_n02123597_8136.png
cornet-s,4,431,NaN,bottle,bottle,3,4271_lp_dnn_3_bottle_10_n04591713_13550.png
cornet-s,4,432,NaN,truck,bottle,3,4272_lp_dnn_3_bottle_10_n03937543_421.png
cornet-s,4,433,NaN,bottle,bottle,3,4273_lp_dnn_3_bottle_10_n04560804_11800.png
cornet-s,4,434,NaN,bottle,bottle,3,4274_lp_dnn_3_bottle_10_n04560804_14605.png
cornet-s,4,435,NaN,bottle,bottle,3,4275_lp_dnn_3_bottle_10_n02823428_762.png
cornet-s,4,436,NaN,bottle,bottle,3,4276_lp_dnn_3_bottle_10_n04560804_2693.png
cornet-s,4,437,NaN,bottle,bottle,3,4277_lp_dnn_3_bottle_10_n04557648_259.png
cornet-s,4,438,NaN,keyboard,bottle,3,4278_lp_dnn_3_bottle_10_n02823428_6812.png
cornet-s,4,439,NaN,keyboard,bottle,3,4279_lp_dnn_3_bottle_10_n04591713_15478.png
cornet-s,4,440,NaN,keyboard,bottle,3,4280_lp_dnn_3_bottle_10_n03983396_8311.png
cornet-s,4,441,NaN,truck,truck,3,4281_lp_dnn_3_truck_10_n03417042_18981.png
cornet-s,4,442,NaN,truck,truck,3,4282_lp_dnn_3_truck_10_n03796401_13378.png
cornet-s,4,443,NaN,truck,truck,3,4283_lp_dnn_3_truck_10_n04467665_34452.png
cornet-s,4,444,NaN,keyboard,truck,3,4284_lp_dnn_3_truck_10_n03417042_10154.png
cornet-s,4,445,NaN,truck,truck,3,4285_lp_dnn_3_truck_10_n03796401_666.png
cornet-s,4,446,NaN,truck,truck,3,4286_lp_dnn_3_truck_10_n03417042_4655.png
cornet-s,4,447,NaN,truck,truck,3,4287_lp_dnn_3_truck_10_n04467665_75984.png
cornet-s,4,448,NaN,truck,truck,3,4288_lp_dnn_3_truck_10_n04467665_80098.png
cornet-s,4,449,NaN,oven,truck,3,4289_lp_dnn_3_truck_10_n03796401_7179.png
cornet-s,4,450,NaN,truck,truck,3,4290_lp_dnn_3_truck_10_n03796401_2514.png
cornet-s,4,451,NaN,car,car,3,4291_lp_dnn_3_car_10_n03100240_2420.png
cornet-s,4,452,NaN,oven,car,3,4292_lp_dnn_3_car_10_n02814533_1881.png
cornet-s,4,453,NaN,car,car,3,4293_lp_dnn_3_car_10_n04285008_11688.png
cornet-s,4,454,NaN,truck,car,3,4294_lp_dnn_3_car_10_n03100240_21737.png
cornet-s,4,455,NaN,truck,car,3,4295_lp_dnn_3_car_10_n03100240_7946.png
cornet-s,4,456,NaN,truck,car,3,4296_lp_dnn_3_car_10_n04285008_11352.png
cornet-s,4,457,NaN,car,car,3,4297_lp_dnn_3_car_10_n04285008_11713.png
cornet-s,4,458,NaN,car,car,3,4298_lp_dnn_3_car_10_n02814533_16978.png
cornet-s,4,459,NaN,truck,car,3,4299_lp_dnn_3_car_10_n02814533_26174.png
cornet-s,4,460,NaN,truck,car,3,4300_lp_dnn_3_car_10_n03100240_261.png
cornet-s,4,461,NaN,bear,bird,3,4301_lp_dnn_3_bird_10_n01514859_3088.png
cornet-s,4,462,NaN,bird,bird,3,4302_lp_dnn_3_bird_10_n02028035_331.png
cornet-s,4,463,NaN,bird,bird,3,4303_lp_dnn_3_bird_10_n01531178_18509.png
cornet-s,4,464,NaN,bird,bird,3,4304_lp_dnn_3_bird_10_n02017213_6626.png
cornet-s,4,465,NaN,bicycle,bird,3,4305_lp_dnn_3_bird_10_n01843383_8585.png
cornet-s,4,466,NaN,oven,bird,3,4306_lp_dnn_3_bird_10_n01843065_529.png
cornet-s,4,467,NaN,knife,bird,3,4307_lp_dnn_3_bird_10_n01534433_2689.png
cornet-s,4,468,NaN,boat,bird,3,4308_lp_dnn_3_bird_10_n01530575_10351.png
cornet-s,4,469,NaN,cat,bird,3,4309_lp_dnn_3_bird_10_n02002556_4806.png
cornet-s,4,470,NaN,bird,bird,3,4310_lp_dnn_3_bird_10_n02007558_5345.png
cornet-s,4,471,NaN,dog,dog,3,4311_lp_dnn_3_dog_10_n02086646_7140.png
cornet-s,4,472,NaN,dog,dog,3,4312_lp_dnn_3_dog_10_n02101006_1633.png
cornet-s,4,473,NaN,dog,dog,3,4313_lp_dnn_3_dog_10_n02105641_6021.png
cornet-s,4,474,NaN,dog,dog,3,4314_lp_dnn_3_dog_10_n02096437_4384.png
cornet-s,4,475,NaN,dog,dog,3,4315_lp_dnn_3_dog_10_n02105505_1047.png
cornet-s,4,476,NaN,truck,dog,3,4316_lp_dnn_3_dog_10_n02104365_9496.png
cornet-s,4,477,NaN,bear,dog,3,4317_lp_dnn_3_dog_10_n02091831_13794.png
cornet-s,4,478,NaN,knife,dog,3,4318_lp_dnn_3_dog_10_n02105641_10838.png
cornet-s,4,479,NaN,dog,dog,3,4319_lp_dnn_3_dog_10_n02112706_2586.png
cornet-s,4,480,NaN,dog,dog,3,4320_lp_dnn_3_dog_10_n02097298_11077.png
cornet-s,4,481,NaN,cat,knife,5,4321_lp_dnn_5_knife_10_n03041632_28201.png
cornet-s,4,482,NaN,bottle,knife,5,4322_lp_dnn_5_knife_10_n03041632_86554.png
cornet-s,4,483,NaN,clock,knife,5,4323_lp_dnn_5_knife_10_n03041632_46103.png
cornet-s,4,484,NaN,oven,knife,5,4324_lp_dnn_5_knife_10_n03041632_32459.png
cornet-s,4,485,NaN,knife,knife,5,4325_lp_dnn_5_knife_10_n03041632_27960.png
cornet-s,4,486,NaN,knife,knife,5,4326_lp_dnn_5_knife_10_n03041632_21560.png
cornet-s,4,487,NaN,knife,knife,5,4327_lp_dnn_5_knife_10_n03041632_32337.png
cornet-s,4,488,NaN,keyboard,knife,5,4328_lp_dnn_5_knife_10_n03041632_23736.png
cornet-s,4,489,NaN,knife,knife,5,4329_lp_dnn_5_knife_10_n03041632_20662.png
cornet-s,4,490,NaN,knife,knife,5,4330_lp_dnn_5_knife_10_n03041632_4494.png
cornet-s,4,491,NaN,keyboard,keyboard,5,4331_lp_dnn_5_keyboard_10_n04505470_4498.png
cornet-s,4,492,NaN,keyboard,keyboard,5,4332_lp_dnn_5_keyboard_10_n03085013_20495.png
cornet-s,4,493,NaN,keyboard,keyboard,5,4333_lp_dnn_5_keyboard_10_n04505470_73.png
cornet-s,4,494,NaN,keyboard,keyboard,5,4334_lp_dnn_5_keyboard_10_n04505470_1245.png
cornet-s,4,495,NaN,oven,keyboard,5,4335_lp_dnn_5_keyboard_10_n04505470_4950.png
cornet-s,4,496,NaN,knife,keyboard,5,4336_lp_dnn_5_keyboard_10_n03085013_7322.png
cornet-s,4,497,NaN,keyboard,keyboard,5,4337_lp_dnn_5_keyboard_10_n03085013_4157.png
cornet-s,4,498,NaN,keyboard,keyboard,5,4338_lp_dnn_5_keyboard_10_n04505470_2115.png
cornet-s,4,499,NaN,truck,keyboard,5,4339_lp_dnn_5_keyboard_10_n03085013_23173.png
cornet-s,4,500,NaN,truck,keyboard,5,4340_lp_dnn_5_keyboard_10_n04505470_1236.png
cornet-s,4,501,NaN,elephant,elephant,5,4341_lp_dnn_5_elephant_10_n02504458_5274.png
cornet-s,4,502,NaN,elephant,elephant,5,4342_lp_dnn_5_elephant_10_n02504013_87.png
cornet-s,4,503,NaN,elephant,elephant,5,4343_lp_dnn_5_elephant_10_n02504458_1197.png
cornet-s,4,504,NaN,knife,elephant,5,4344_lp_dnn_5_elephant_10_n02504013_6405.png
cornet-s,4,505,NaN,bottle,elephant,5,4345_lp_dnn_5_elephant_10_n02504013_4166.png
cornet-s,4,506,NaN,dog,elephant,5,4346_lp_dnn_5_elephant_10_n02504013_1099.png
cornet-s,4,507,NaN,dog,elephant,5,4347_lp_dnn_5_elephant_10_n02504458_9237.png
cornet-s,4,508,NaN,bear,elephant,5,4348_lp_dnn_5_elephant_10_n02504013_8002.png
cornet-s,4,509,NaN,knife,elephant,5,4349_lp_dnn_5_elephant_10_n02504013_2445.png
cornet-s,4,510,NaN,truck,elephant,5,4350_lp_dnn_5_elephant_10_n02504013_5351.png
cornet-s,4,511,NaN,knife,bicycle,5,4351_lp_dnn_5_bicycle_10_n03792782_3552.png
cornet-s,4,512,NaN,keyboard,bicycle,5,4352_lp_dnn_5_bicycle_10_n02835271_4935.png
cornet-s,4,513,NaN,clock,bicycle,5,4353_lp_dnn_5_bicycle_10_n03792782_32232.png
cornet-s,4,514,NaN,dog,bicycle,5,4354_lp_dnn_5_bicycle_10_n02835271_75.png
cornet-s,4,515,NaN,keyboard,bicycle,5,4355_lp_dnn_5_bicycle_10_n02835271_13213.png
cornet-s,4,516,NaN,bottle,bicycle,5,4356_lp_dnn_5_bicycle_10_n02835271_1345.png
cornet-s,4,517,NaN,knife,bicycle,5,4357_lp_dnn_5_bicycle_10_n02835271_8081.png
cornet-s,4,518,NaN,bottle,bicycle,5,4358_lp_dnn_5_bicycle_10_n03792782_19840.png
cornet-s,4,519,NaN,knife,bicycle,5,4359_lp_dnn_5_bicycle_10_n03792782_3342.png
cornet-s,4,520,NaN,knife,bicycle,5,4360_lp_dnn_5_bicycle_10_n02835271_8453.png
cornet-s,4,521,NaN,knife,airplane,5,4361_lp_dnn_5_airplane_10_n02690373_19673.png
cornet-s,4,522,NaN,truck,airplane,5,4362_lp_dnn_5_airplane_10_n02690373_4243.png
cornet-s,4,523,NaN,keyboard,airplane,5,4363_lp_dnn_5_airplane_10_n02690373_13021.png
cornet-s,4,524,NaN,knife,airplane,5,4364_lp_dnn_5_airplane_10_n02690373_5789.png
cornet-s,4,525,NaN,airplane,airplane,5,4365_lp_dnn_5_airplane_10_n02690373_19742.png
cornet-s,4,526,NaN,knife,airplane,5,4366_lp_dnn_5_airplane_10_n02690373_9605.png
cornet-s,4,527,NaN,knife,airplane,5,4367_lp_dnn_5_airplane_10_n02690373_3150.png
cornet-s,4,528,NaN,airplane,airplane,5,4368_lp_dnn_5_airplane_10_n02690373_9533.png
cornet-s,4,529,NaN,knife,airplane,5,4369_lp_dnn_5_airplane_10_n02690373_7647.png
cornet-s,4,530,NaN,knife,airplane,5,4370_lp_dnn_5_airplane_10_n02690373_5075.png
cornet-s,4,531,NaN,clock,clock,5,4371_lp_dnn_5_clock_10_n04548280_5629.png
cornet-s,4,532,NaN,knife,clock,5,4372_lp_dnn_5_clock_10_n03196217_5627.png
cornet-s,4,533,NaN,clock,clock,5,4373_lp_dnn_5_clock_10_n02708093_3664.png
cornet-s,4,534,NaN,clock,clock,5,4374_lp_dnn_5_clock_10_n04548280_9646.png
cornet-s,4,535,NaN,clock,clock,5,4375_lp_dnn_5_clock_10_n02708093_3438.png
cornet-s,4,536,NaN,clock,clock,5,4376_lp_dnn_5_clock_10_n04548280_4709.png
cornet-s,4,537,NaN,bottle,clock,5,4377_lp_dnn_5_clock_10_n03196217_11351.png
cornet-s,4,538,NaN,clock,clock,5,4378_lp_dnn_5_clock_10_n04548280_8494.png
cornet-s,4,539,NaN,clock,clock,5,4379_lp_dnn_5_clock_10_n02708093_5758.png
cornet-s,4,540,NaN,clock,clock,5,4380_lp_dnn_5_clock_10_n04548280_5013.png
cornet-s,4,541,NaN,dog,oven,5,4381_lp_dnn_5_oven_10_n04111531_12769.png
cornet-s,4,542,NaN,knife,oven,5,4382_lp_dnn_5_oven_10_n04111531_22916.png
cornet-s,4,543,NaN,oven,oven,5,4383_lp_dnn_5_oven_10_n04111531_14690.png
cornet-s,4,544,NaN,oven,oven,5,4384_lp_dnn_5_oven_10_n04111531_11794.png
cornet-s,4,545,NaN,cat,oven,5,4385_lp_dnn_5_oven_10_n04111531_9822.png
cornet-s,4,546,NaN,bottle,oven,5,4386_lp_dnn_5_oven_10_n04111531_3611.png
cornet-s,4,547,NaN,oven,oven,5,4387_lp_dnn_5_oven_10_n04111531_17809.png
cornet-s,4,548,NaN,bottle,oven,5,4388_lp_dnn_5_oven_10_n04111531_15492.png
cornet-s,4,549,NaN,oven,oven,5,4389_lp_dnn_5_oven_10_n04111531_7130.png
cornet-s,4,550,NaN,oven,oven,5,4390_lp_dnn_5_oven_10_n04111531_14951.png
cornet-s,4,551,NaN,chair,chair,5,4391_lp_dnn_5_chair_10_n03376595_10983.png
cornet-s,4,552,NaN,bottle,chair,5,4392_lp_dnn_5_chair_10_n03376595_5730.png
cornet-s,4,553,NaN,bottle,chair,5,4393_lp_dnn_5_chair_10_n04429376_14186.png
cornet-s,4,554,NaN,oven,chair,5,4394_lp_dnn_5_chair_10_n03376595_6791.png
cornet-s,4,555,NaN,clock,chair,5,4395_lp_dnn_5_chair_10_n02791124_4312.png
cornet-s,4,556,NaN,knife,chair,5,4396_lp_dnn_5_chair_10_n03376595_6586.png
cornet-s,4,557,NaN,knife,chair,5,4397_lp_dnn_5_chair_10_n02791124_1895.png
cornet-s,4,558,NaN,clock,chair,5,4398_lp_dnn_5_chair_10_n03376595_6570.png
cornet-s,4,559,NaN,oven,chair,5,4399_lp_dnn_5_chair_10_n04429376_6480.png
cornet-s,4,560,NaN,clock,chair,5,4400_lp_dnn_5_chair_10_n04099969_24495.png
cornet-s,4,561,NaN,elephant,bear,5,4401_lp_dnn_5_bear_10_n02132136_24229.png
cornet-s,4,562,NaN,knife,bear,5,4402_lp_dnn_5_bear_10_n02134418_2468.png
cornet-s,4,563,NaN,knife,bear,5,4403_lp_dnn_5_bear_10_n02132136_8637.png
cornet-s,4,564,NaN,bear,bear,5,4404_lp_dnn_5_bear_10_n02132136_20422.png
cornet-s,4,565,NaN,knife,bear,5,4405_lp_dnn_5_bear_10_n02133161_13356.png
cornet-s,4,566,NaN,dog,bear,5,4406_lp_dnn_5_bear_10_n02134084_1910.png
cornet-s,4,567,NaN,dog,bear,5,4407_lp_dnn_5_bear_10_n02133161_5365.png
cornet-s,4,568,NaN,knife,bear,5,4408_lp_dnn_5_bear_10_n02134084_4891.png
cornet-s,4,569,NaN,knife,bear,5,4409_lp_dnn_5_bear_10_n02134084_7841.png
cornet-s,4,570,NaN,bear,bear,5,4410_lp_dnn_5_bear_10_n02134418_3855.png
cornet-s,4,571,NaN,knife,boat,5,4411_lp_dnn_5_boat_10_n04273569_13187.png
cornet-s,4,572,NaN,bottle,boat,5,4412_lp_dnn_5_boat_10_n03662601_7935.png
cornet-s,4,573,NaN,knife,boat,5,4413_lp_dnn_5_boat_10_n03344393_3443.png
cornet-s,4,574,NaN,knife,boat,5,4414_lp_dnn_5_boat_10_n04273569_892.png
cornet-s,4,575,NaN,truck,boat,5,4415_lp_dnn_5_boat_10_n04612504_9154.png
cornet-s,4,576,NaN,knife,boat,5,4416_lp_dnn_5_boat_10_n02951358_1290.png
cornet-s,4,577,NaN,knife,boat,5,4417_lp_dnn_5_boat_10_n03662601_17714.png
cornet-s,4,578,NaN,keyboard,boat,5,4418_lp_dnn_5_boat_10_n02951358_6569.png
cornet-s,4,579,NaN,knife,boat,5,4419_lp_dnn_5_boat_10_n03662601_20797.png
cornet-s,4,580,NaN,boat,boat,5,4420_lp_dnn_5_boat_10_n03344393_909.png
cornet-s,4,581,NaN,knife,cat,5,4421_lp_dnn_5_cat_10_n02124075_4454.png
cornet-s,4,582,NaN,knife,cat,5,4422_lp_dnn_5_cat_10_n02123597_6880.png
cornet-s,4,583,NaN,knife,cat,5,4423_lp_dnn_5_cat_10_n02125311_30099.png
cornet-s,4,584,NaN,knife,cat,5,4424_lp_dnn_5_cat_10_n02124075_10775.png
cornet-s,4,585,NaN,knife,cat,5,4425_lp_dnn_5_cat_10_n02123394_3590.png
cornet-s,4,586,NaN,clock,cat,5,4426_lp_dnn_5_cat_10_n02125311_9071.png
cornet-s,4,587,NaN,cat,cat,5,4427_lp_dnn_5_cat_10_n02123045_5597.png
cornet-s,4,588,NaN,cat,cat,5,4428_lp_dnn_5_cat_10_n02123597_9531.png
cornet-s,4,589,NaN,dog,cat,5,4429_lp_dnn_5_cat_10_n02124075_15119.png
cornet-s,4,590,NaN,cat,cat,5,4430_lp_dnn_5_cat_10_n02123597_28683.png
cornet-s,4,591,NaN,keyboard,bottle,5,4431_lp_dnn_5_bottle_10_n03937543_6620.png
cornet-s,4,592,NaN,knife,bottle,5,4432_lp_dnn_5_bottle_10_n04557648_524.png
cornet-s,4,593,NaN,knife,bottle,5,4433_lp_dnn_5_bottle_10_n02823428_13458.png
cornet-s,4,594,NaN,bottle,bottle,5,4434_lp_dnn_5_bottle_10_n03937543_4365.png
cornet-s,4,595,NaN,knife,bottle,5,4435_lp_dnn_5_bottle_10_n04591713_3360.png
cornet-s,4,596,NaN,bottle,bottle,5,4436_lp_dnn_5_bottle_10_n02823428_14636.png
cornet-s,4,597,NaN,knife,bottle,5,4437_lp_dnn_5_bottle_10_n03937543_5322.png
cornet-s,4,598,NaN,keyboard,bottle,5,4438_lp_dnn_5_bottle_10_n03983396_11597.png
cornet-s,4,599,NaN,truck,bottle,5,4439_lp_dnn_5_bottle_10_n04560804_4192.png
cornet-s,4,600,NaN,bottle,bottle,5,4440_lp_dnn_5_bottle_10_n04579145_526.png
cornet-s,4,601,NaN,truck,truck,5,4441_lp_dnn_5_truck_10_n04467665_3710.png
cornet-s,4,602,NaN,truck,truck,5,4442_lp_dnn_5_truck_10_n03417042_17757.png
cornet-s,4,603,NaN,truck,truck,5,4443_lp_dnn_5_truck_10_n03417042_13806.png
cornet-s,4,604,NaN,knife,truck,5,4444_lp_dnn_5_truck_10_n03417042_8348.png
cornet-s,4,605,NaN,truck,truck,5,4445_lp_dnn_5_truck_10_n03796401_4454.png
cornet-s,4,606,NaN,truck,truck,5,4446_lp_dnn_5_truck_10_n04467665_5951.png
cornet-s,4,607,NaN,oven,truck,5,4447_lp_dnn_5_truck_10_n04467665_16261.png
cornet-s,4,608,NaN,oven,truck,5,4448_lp_dnn_5_truck_10_n03417042_11.png
cornet-s,4,609,NaN,bottle,truck,5,4449_lp_dnn_5_truck_10_n03417042_21705.png
cornet-s,4,610,NaN,truck,truck,5,4450_lp_dnn_5_truck_10_n03417042_12013.png
cornet-s,4,611,NaN,keyboard,car,5,4451_lp_dnn_5_car_10_n03100240_8862.png
cornet-s,4,612,NaN,truck,car,5,4452_lp_dnn_5_car_10_n03100240_15009.png
cornet-s,4,613,NaN,knife,car,5,4453_lp_dnn_5_car_10_n02814533_3594.png
cornet-s,4,614,NaN,knife,car,5,4454_lp_dnn_5_car_10_n04285008_13980.png
cornet-s,4,615,NaN,knife,car,5,4455_lp_dnn_5_car_10_n02814533_94398.png
cornet-s,4,616,NaN,truck,car,5,4456_lp_dnn_5_car_10_n04285008_16856.png
cornet-s,4,617,NaN,truck,car,5,4457_lp_dnn_5_car_10_n03100240_6330.png
cornet-s,4,618,NaN,truck,car,5,4458_lp_dnn_5_car_10_n02814533_52263.png
cornet-s,4,619,NaN,truck,car,5,4459_lp_dnn_5_car_10_n02814533_22889.png
cornet-s,4,620,NaN,truck,car,5,4460_lp_dnn_5_car_10_n03100240_7458.png
cornet-s,4,621,NaN,bottle,bird,5,4461_lp_dnn_5_bird_10_n01855672_8078.png
cornet-s,4,622,NaN,oven,bird,5,4462_lp_dnn_5_bird_10_n02056570_9369.png
cornet-s,4,623,NaN,knife,bird,5,4463_lp_dnn_5_bird_10_n01582220_154.png
cornet-s,4,624,NaN,knife,bird,5,4464_lp_dnn_5_bird_10_n02018795_6113.png
cornet-s,4,625,NaN,elephant,bird,5,4465_lp_dnn_5_bird_10_n01855672_6102.png
cornet-s,4,626,NaN,clock,bird,5,4466_lp_dnn_5_bird_10_n02051845_11767.png
cornet-s,4,627,NaN,knife,bird,5,4467_lp_dnn_5_bird_10_n01817953_3602.png
cornet-s,4,628,NaN,knife,bird,5,4468_lp_dnn_5_bird_10_n01616318_10857.png
cornet-s,4,629,NaN,bear,bird,5,4469_lp_dnn_5_bird_10_n01616318_2054.png
cornet-s,4,630,NaN,knife,bird,5,4470_lp_dnn_5_bird_10_n02037110_895.png
cornet-s,4,631,NaN,knife,dog,5,4471_lp_dnn_5_dog_10_n02099601_2234.png
cornet-s,4,632,NaN,dog,dog,5,4472_lp_dnn_5_dog_10_n02108915_5239.png
cornet-s,4,633,NaN,bear,dog,5,4473_lp_dnn_5_dog_10_n02096437_7266.png
cornet-s,4,634,NaN,oven,dog,5,4474_lp_dnn_5_dog_10_n02096294_9298.png
cornet-s,4,635,NaN,elephant,dog,5,4475_lp_dnn_5_dog_10_n02091032_5764.png
cornet-s,4,636,NaN,dog,dog,5,4476_lp_dnn_5_dog_10_n02110185_14479.png
cornet-s,4,637,NaN,knife,dog,5,4477_lp_dnn_5_dog_10_n02091032_9517.png
cornet-s,4,638,NaN,dog,dog,5,4478_lp_dnn_5_dog_10_n02110958_12934.png
cornet-s,4,639,NaN,dog,dog,5,4479_lp_dnn_5_dog_10_n02105505_1293.png
cornet-s,4,640,NaN,knife,dog,5,4480_lp_dnn_5_dog_10_n02097047_2432.png
cornet-s,4,641,NaN,knife,knife,7,4481_lp_dnn_7_knife_10_n03041632_18141.png
cornet-s,4,642,NaN,bottle,knife,7,4482_lp_dnn_7_knife_10_n03041632_126.png
cornet-s,4,643,NaN,knife,knife,7,4483_lp_dnn_7_knife_10_n03041632_51581.png
cornet-s,4,644,NaN,knife,knife,7,4484_lp_dnn_7_knife_10_n03041632_18236.png
cornet-s,4,645,NaN,knife,knife,7,4485_lp_dnn_7_knife_10_n03041632_42472.png
cornet-s,4,646,NaN,knife,knife,7,4486_lp_dnn_7_knife_10_n03041632_40887.png
cornet-s,4,647,NaN,knife,knife,7,4487_lp_dnn_7_knife_10_n03041632_6557.png
cornet-s,4,648,NaN,clock,knife,7,4488_lp_dnn_7_knife_10_n03041632_27879.png
cornet-s,4,649,NaN,knife,knife,7,4489_lp_dnn_7_knife_10_n03041632_10136.png
cornet-s,4,650,NaN,oven,knife,7,4490_lp_dnn_7_knife_10_n03041632_84012.png
cornet-s,4,651,NaN,knife,keyboard,7,4491_lp_dnn_7_keyboard_10_n03085013_14079.png
cornet-s,4,652,NaN,knife,keyboard,7,4492_lp_dnn_7_keyboard_10_n04505470_3068.png
cornet-s,4,653,NaN,knife,keyboard,7,4493_lp_dnn_7_keyboard_10_n04505470_2488.png
cornet-s,4,654,NaN,truck,keyboard,7,4494_lp_dnn_7_keyboard_10_n04505470_4795.png
cornet-s,4,655,NaN,clock,keyboard,7,4495_lp_dnn_7_keyboard_10_n03085013_8157.png
cornet-s,4,656,NaN,clock,keyboard,7,4496_lp_dnn_7_keyboard_10_n04505470_4535.png
cornet-s,4,657,NaN,knife,keyboard,7,4497_lp_dnn_7_keyboard_10_n04505470_8822.png
cornet-s,4,658,NaN,keyboard,keyboard,7,4498_lp_dnn_7_keyboard_10_n03085013_20727.png
cornet-s,4,659,NaN,bottle,keyboard,7,4499_lp_dnn_7_keyboard_10_n03085013_23790.png
cornet-s,4,660,NaN,knife,keyboard,7,4500_lp_dnn_7_keyboard_10_n03085013_20515.png
cornet-s,4,661,NaN,bottle,elephant,7,4501_lp_dnn_7_elephant_10_n02504013_8572.png
cornet-s,4,662,NaN,knife,elephant,7,4502_lp_dnn_7_elephant_10_n02504458_7845.png
cornet-s,4,663,NaN,knife,elephant,7,4503_lp_dnn_7_elephant_10_n02504013_3172.png
cornet-s,4,664,NaN,knife,elephant,7,4504_lp_dnn_7_elephant_10_n02504013_10097.png
cornet-s,4,665,NaN,bottle,elephant,7,4505_lp_dnn_7_elephant_10_n02504458_6437.png
cornet-s,4,666,NaN,knife,elephant,7,4506_lp_dnn_7_elephant_10_n02504013_344.png
cornet-s,4,667,NaN,bottle,elephant,7,4507_lp_dnn_7_elephant_10_n02504013_22099.png
cornet-s,4,668,NaN,knife,elephant,7,4508_lp_dnn_7_elephant_10_n02504013_3969.png
cornet-s,4,669,NaN,clock,elephant,7,4509_lp_dnn_7_elephant_10_n02504458_146.png
cornet-s,4,670,NaN,elephant,elephant,7,4510_lp_dnn_7_elephant_10_n02504458_3437.png
cornet-s,4,671,NaN,clock,bicycle,7,4511_lp_dnn_7_bicycle_10_n03792782_24756.png
cornet-s,4,672,NaN,bear,bicycle,7,4512_lp_dnn_7_bicycle_10_n03792782_4447.png
cornet-s,4,673,NaN,knife,bicycle,7,4513_lp_dnn_7_bicycle_10_n02835271_5986.png
cornet-s,4,674,NaN,knife,bicycle,7,4514_lp_dnn_7_bicycle_10_n03792782_20190.png
cornet-s,4,675,NaN,bottle,bicycle,7,4515_lp_dnn_7_bicycle_10_n02835271_21043.png
cornet-s,4,676,NaN,knife,bicycle,7,4516_lp_dnn_7_bicycle_10_n03792782_5532.png
cornet-s,4,677,NaN,knife,bicycle,7,4517_lp_dnn_7_bicycle_10_n03792782_15427.png
cornet-s,4,678,NaN,knife,bicycle,7,4518_lp_dnn_7_bicycle_10_n03792782_5232.png
cornet-s,4,679,NaN,bottle,bicycle,7,4519_lp_dnn_7_bicycle_10_n03792782_42780.png
cornet-s,4,680,NaN,knife,bicycle,7,4520_lp_dnn_7_bicycle_10_n03792782_242.png
cornet-s,4,681,NaN,knife,airplane,7,4521_lp_dnn_7_airplane_10_n02690373_4507.png
cornet-s,4,682,NaN,airplane,airplane,7,4522_lp_dnn_7_airplane_10_n02690373_4921.png
cornet-s,4,683,NaN,knife,airplane,7,4523_lp_dnn_7_airplane_10_n02690373_5587.png
cornet-s,4,684,NaN,knife,airplane,7,4524_lp_dnn_7_airplane_10_n02690373_2561.png
cornet-s,4,685,NaN,knife,airplane,7,4525_lp_dnn_7_airplane_10_n02690373_8711.png
cornet-s,4,686,NaN,knife,airplane,7,4526_lp_dnn_7_airplane_10_n02690373_1416.png
cornet-s,4,687,NaN,knife,airplane,7,4527_lp_dnn_7_airplane_10_n02690373_20074.png
cornet-s,4,688,NaN,knife,airplane,7,4528_lp_dnn_7_airplane_10_n02690373_13617.png
cornet-s,4,689,NaN,knife,airplane,7,4529_lp_dnn_7_airplane_10_n02690373_8789.png
cornet-s,4,690,NaN,knife,airplane,7,4530_lp_dnn_7_airplane_10_n02690373_8872.png
cornet-s,4,691,NaN,bottle,clock,7,4531_lp_dnn_7_clock_10_n02708093_623.png
cornet-s,4,692,NaN,knife,clock,7,4532_lp_dnn_7_clock_10_n03196217_5618.png
cornet-s,4,693,NaN,clock,clock,7,4533_lp_dnn_7_clock_10_n02708093_4255.png
cornet-s,4,694,NaN,clock,clock,7,4534_lp_dnn_7_clock_10_n03196217_4834.png
cornet-s,4,695,NaN,clock,clock,7,4535_lp_dnn_7_clock_10_n03196217_1430.png
cornet-s,4,696,NaN,clock,clock,7,4536_lp_dnn_7_clock_10_n04548280_2045.png
cornet-s,4,697,NaN,clock,clock,7,4537_lp_dnn_7_clock_10_n04548280_4441.png
cornet-s,4,698,NaN,clock,clock,7,4538_lp_dnn_7_clock_10_n04548280_5798.png
cornet-s,4,699,NaN,knife,clock,7,4539_lp_dnn_7_clock_10_n04548280_2455.png
cornet-s,4,700,NaN,clock,clock,7,4540_lp_dnn_7_clock_10_n04548280_2937.png
cornet-s,4,701,NaN,bottle,oven,7,4541_lp_dnn_7_oven_10_n04111531_7625.png
cornet-s,4,702,NaN,oven,oven,7,4542_lp_dnn_7_oven_10_n04111531_2456.png
cornet-s,4,703,NaN,bottle,oven,7,4543_lp_dnn_7_oven_10_n04111531_7664.png
cornet-s,4,704,NaN,knife,oven,7,4544_lp_dnn_7_oven_10_n04111531_8077.png
cornet-s,4,705,NaN,knife,oven,7,4545_lp_dnn_7_oven_10_n04111531_7050.png
cornet-s,4,706,NaN,knife,oven,7,4546_lp_dnn_7_oven_10_n04111531_1723.png
cornet-s,4,707,NaN,knife,oven,7,4547_lp_dnn_7_oven_10_n04111531_12408.png
cornet-s,4,708,NaN,bottle,oven,7,4548_lp_dnn_7_oven_10_n04111531_6704.png
cornet-s,4,709,NaN,dog,oven,7,4549_lp_dnn_7_oven_10_n04111531_13354.png
cornet-s,4,710,NaN,bear,oven,7,4550_lp_dnn_7_oven_10_n04111531_3580.png
cornet-s,4,711,NaN,cat,chair,7,4551_lp_dnn_7_chair_10_n02791124_2606.png
cornet-s,4,712,NaN,truck,chair,7,4552_lp_dnn_7_chair_10_n02791124_9918.png
cornet-s,4,713,NaN,knife,chair,7,4553_lp_dnn_7_chair_10_n04429376_4254.png
cornet-s,4,714,NaN,knife,chair,7,4554_lp_dnn_7_chair_10_n04429376_5067.png
cornet-s,4,715,NaN,bottle,chair,7,4555_lp_dnn_7_chair_10_n04429376_3620.png
cornet-s,4,716,NaN,oven,chair,7,4556_lp_dnn_7_chair_10_n02791124_1463.png
cornet-s,4,717,NaN,knife,chair,7,4557_lp_dnn_7_chair_10_n03376595_3043.png
cornet-s,4,718,NaN,keyboard,chair,7,4558_lp_dnn_7_chair_10_n03376595_8958.png
cornet-s,4,719,NaN,knife,chair,7,4559_lp_dnn_7_chair_10_n02791124_3555.png
cornet-s,4,720,NaN,knife,chair,7,4560_lp_dnn_7_chair_10_n04429376_9432.png
cornet-s,4,721,NaN,bear,bear,7,4561_lp_dnn_7_bear_10_n02133161_7339.png
cornet-s,4,722,NaN,knife,bear,7,4562_lp_dnn_7_bear_10_n02133161_361.png
cornet-s,4,723,NaN,cat,bear,7,4563_lp_dnn_7_bear_10_n02134418_6001.png
cornet-s,4,724,NaN,knife,bear,7,4564_lp_dnn_7_bear_10_n02134084_6606.png
cornet-s,4,725,NaN,knife,bear,7,4565_lp_dnn_7_bear_10_n02132136_9829.png
cornet-s,4,726,NaN,bottle,bear,7,4566_lp_dnn_7_bear_10_n02134418_14850.png
cornet-s,4,727,NaN,bear,bear,7,4567_lp_dnn_7_bear_10_n02134084_13205.png
cornet-s,4,728,NaN,dog,bear,7,4568_lp_dnn_7_bear_10_n02133161_13184.png
cornet-s,4,729,NaN,knife,bear,7,4569_lp_dnn_7_bear_10_n02134418_2964.png
cornet-s,4,730,NaN,knife,bear,7,4570_lp_dnn_7_bear_10_n02132136_6481.png
cornet-s,4,731,NaN,knife,boat,7,4571_lp_dnn_7_boat_10_n03344393_2204.png
cornet-s,4,732,NaN,bottle,boat,7,4572_lp_dnn_7_boat_10_n04612504_993.png
cornet-s,4,733,NaN,knife,boat,7,4573_lp_dnn_7_boat_10_n04273569_9693.png
cornet-s,4,734,NaN,knife,boat,7,4574_lp_dnn_7_boat_10_n04612504_6552.png
cornet-s,4,735,NaN,knife,boat,7,4575_lp_dnn_7_boat_10_n02951358_11190.png
cornet-s,4,736,NaN,knife,boat,7,4576_lp_dnn_7_boat_10_n04273569_4327.png
cornet-s,4,737,NaN,knife,boat,7,4577_lp_dnn_7_boat_10_n03662601_13008.png
cornet-s,4,738,NaN,knife,boat,7,4578_lp_dnn_7_boat_10_n04273569_7315.png
cornet-s,4,739,NaN,knife,boat,7,4579_lp_dnn_7_boat_10_n03662601_22070.png
cornet-s,4,740,NaN,knife,boat,7,4580_lp_dnn_7_boat_10_n03344393_6517.png
cornet-s,4,741,NaN,knife,cat,7,4581_lp_dnn_7_cat_10_n02125311_22459.png
cornet-s,4,742,NaN,knife,cat,7,4582_lp_dnn_7_cat_10_n02125311_29159.png
cornet-s,4,743,NaN,knife,cat,7,4583_lp_dnn_7_cat_10_n02125311_4952.png
cornet-s,4,744,NaN,cat,cat,7,4584_lp_dnn_7_cat_10_n02123045_4742.png
cornet-s,4,745,NaN,knife,cat,7,4585_lp_dnn_7_cat_10_n02123597_31773.png
cornet-s,4,746,NaN,bear,cat,7,4586_lp_dnn_7_cat_10_n02123394_4775.png
cornet-s,4,747,NaN,knife,cat,7,4587_lp_dnn_7_cat_10_n02123045_2390.png
cornet-s,4,748,NaN,knife,cat,7,4588_lp_dnn_7_cat_10_n02123045_4089.png
cornet-s,4,749,NaN,knife,cat,7,4589_lp_dnn_7_cat_10_n02123394_2354.png
cornet-s,4,750,NaN,cat,cat,7,4590_lp_dnn_7_cat_10_n02125311_17266.png
cornet-s,4,751,NaN,clock,bottle,7,4591_lp_dnn_7_bottle_10_n04557648_10258.png
cornet-s,4,752,NaN,knife,bottle,7,4592_lp_dnn_7_bottle_10_n04557648_9587.png
cornet-s,4,753,NaN,bottle,bottle,7,4593_lp_dnn_7_bottle_10_n02823428_4580.png
cornet-s,4,754,NaN,keyboard,bottle,7,4594_lp_dnn_7_bottle_10_n04591713_2359.png
cornet-s,4,755,NaN,knife,bottle,7,4595_lp_dnn_7_bottle_10_n04591713_11370.png
cornet-s,4,756,NaN,knife,bottle,7,4596_lp_dnn_7_bottle_10_n03937543_3126.png
cornet-s,4,757,NaN,keyboard,bottle,7,4597_lp_dnn_7_bottle_10_n03937543_5567.png
cornet-s,4,758,NaN,knife,bottle,7,4598_lp_dnn_7_bottle_10_n04560804_16052.png
cornet-s,4,759,NaN,knife,bottle,7,4599_lp_dnn_7_bottle_10_n02823428_79.png
cornet-s,4,760,NaN,knife,bottle,7,4600_lp_dnn_7_bottle_10_n03937543_2037.png
cornet-s,4,761,NaN,truck,truck,7,4601_lp_dnn_7_truck_10_n03796401_21949.png
cornet-s,4,762,NaN,knife,truck,7,4602_lp_dnn_7_truck_10_n03417042_27862.png
cornet-s,4,763,NaN,knife,truck,7,4603_lp_dnn_7_truck_10_n04467665_21912.png
cornet-s,4,764,NaN,knife,truck,7,4604_lp_dnn_7_truck_10_n03417042_11704.png
cornet-s,4,765,NaN,knife,truck,7,4605_lp_dnn_7_truck_10_n03417042_6888.png
cornet-s,4,766,NaN,truck,truck,7,4606_lp_dnn_7_truck_10_n03417042_634.png
cornet-s,4,767,NaN,knife,truck,7,4607_lp_dnn_7_truck_10_n04467665_11830.png
cornet-s,4,768,NaN,bear,truck,7,4608_lp_dnn_7_truck_10_n03417042_5493.png
cornet-s,4,769,NaN,keyboard,truck,7,4609_lp_dnn_7_truck_10_n03417042_1492.png
cornet-s,4,770,NaN,knife,truck,7,4610_lp_dnn_7_truck_10_n03417042_10289.png
cornet-s,4,771,NaN,knife,car,7,4611_lp_dnn_7_car_10_n02814533_982.png
cornet-s,4,772,NaN,knife,car,7,4612_lp_dnn_7_car_10_n03100240_52.png
cornet-s,4,773,NaN,knife,car,7,4613_lp_dnn_7_car_10_n03100240_2683.png
cornet-s,4,774,NaN,knife,car,7,4614_lp_dnn_7_car_10_n02814533_73210.png
cornet-s,4,775,NaN,knife,car,7,4615_lp_dnn_7_car_10_n03100240_7454.png
cornet-s,4,776,NaN,knife,car,7,4616_lp_dnn_7_car_10_n04285008_7215.png
cornet-s,4,777,NaN,knife,car,7,4617_lp_dnn_7_car_10_n04285008_10108.png
cornet-s,4,778,NaN,knife,car,7,4618_lp_dnn_7_car_10_n03100240_3070.png
cornet-s,4,779,NaN,knife,car,7,4619_lp_dnn_7_car_10_n02814533_18077.png
cornet-s,4,780,NaN,oven,car,7,4620_lp_dnn_7_car_10_n03100240_6913.png
cornet-s,4,781,NaN,knife,bird,7,4621_lp_dnn_7_bird_10_n01819313_5142.png
cornet-s,4,782,NaN,bottle,bird,7,4622_lp_dnn_7_bird_10_n01855032_3747.png
cornet-s,4,783,NaN,knife,bird,7,4623_lp_dnn_7_bird_10_n01560419_17874.png
cornet-s,4,784,NaN,knife,bird,7,4624_lp_dnn_7_bird_10_n01592084_6934.png
cornet-s,4,785,NaN,bear,bird,7,4625_lp_dnn_7_bird_10_n01558993_19761.png
cornet-s,4,786,NaN,knife,bird,7,4626_lp_dnn_7_bird_10_n02002556_10991.png
cornet-s,4,787,NaN,knife,bird,7,4627_lp_dnn_7_bird_10_n01530575_6733.png
cornet-s,4,788,NaN,clock,bird,7,4628_lp_dnn_7_bird_10_n02037110_8339.png
cornet-s,4,789,NaN,knife,bird,7,4629_lp_dnn_7_bird_10_n01582220_8400.png
cornet-s,4,790,NaN,knife,bird,7,4630_lp_dnn_7_bird_10_n01616318_12751.png
cornet-s,4,791,NaN,knife,dog,7,4631_lp_dnn_7_dog_10_n02107574_3641.png
cornet-s,4,792,NaN,dog,dog,7,4632_lp_dnn_7_dog_10_n02107908_7295.png
cornet-s,4,793,NaN,clock,dog,7,4633_lp_dnn_7_dog_10_n02099849_4665.png
cornet-s,4,794,NaN,bottle,dog,7,4634_lp_dnn_7_dog_10_n02109961_58994.png
cornet-s,4,795,NaN,knife,dog,7,4635_lp_dnn_7_dog_10_n02093428_1670.png
cornet-s,4,796,NaN,knife,dog,7,4636_lp_dnn_7_dog_10_n02106662_8828.png
cornet-s,4,797,NaN,knife,dog,7,4637_lp_dnn_7_dog_10_n02091032_6223.png
cornet-s,4,798,NaN,knife,dog,7,4638_lp_dnn_7_dog_10_n02107574_6160.png
cornet-s,4,799,NaN,dog,dog,7,4639_lp_dnn_7_dog_10_n02098286_1989.png
cornet-s,4,800,NaN,bottle,dog,7,4640_lp_dnn_7_dog_10_n02113799_8221.png
cornet-s,4,801,NaN,knife,knife,10,4641_lp_dnn_10_knife_10_n03041632_44230.png
cornet-s,4,802,NaN,knife,knife,10,4642_lp_dnn_10_knife_10_n03041632_46422.png
cornet-s,4,803,NaN,clock,knife,10,4643_lp_dnn_10_knife_10_n03041632_932.png
cornet-s,4,804,NaN,knife,knife,10,4644_lp_dnn_10_knife_10_n03041632_5427.png
cornet-s,4,805,NaN,knife,knife,10,4645_lp_dnn_10_knife_10_n03041632_42162.png
cornet-s,4,806,NaN,dog,knife,10,4646_lp_dnn_10_knife_10_n03041632_95293.png
cornet-s,4,807,NaN,knife,knife,10,4647_lp_dnn_10_knife_10_n03041632_47410.png
cornet-s,4,808,NaN,bottle,knife,10,4648_lp_dnn_10_knife_10_n03041632_29038.png
cornet-s,4,809,NaN,knife,knife,10,4649_lp_dnn_10_knife_10_n03041632_33488.png
cornet-s,4,810,NaN,clock,knife,10,4650_lp_dnn_10_knife_10_n03041632_1884.png
cornet-s,4,811,NaN,knife,keyboard,10,4651_lp_dnn_10_keyboard_10_n04505470_5046.png
cornet-s,4,812,NaN,knife,keyboard,10,4652_lp_dnn_10_keyboard_10_n04505470_9331.png
cornet-s,4,813,NaN,knife,keyboard,10,4653_lp_dnn_10_keyboard_10_n04505470_9113.png
cornet-s,4,814,NaN,knife,keyboard,10,4654_lp_dnn_10_keyboard_10_n03085013_18510.png
cornet-s,4,815,NaN,knife,keyboard,10,4655_lp_dnn_10_keyboard_10_n03085013_10660.png
cornet-s,4,816,NaN,knife,keyboard,10,4656_lp_dnn_10_keyboard_10_n04505470_3002.png
cornet-s,4,817,NaN,keyboard,keyboard,10,4657_lp_dnn_10_keyboard_10_n03085013_20492.png
cornet-s,4,818,NaN,knife,keyboard,10,4658_lp_dnn_10_keyboard_10_n03085013_2752.png
cornet-s,4,819,NaN,knife,keyboard,10,4659_lp_dnn_10_keyboard_10_n03085013_23119.png
cornet-s,4,820,NaN,keyboard,keyboard,10,4660_lp_dnn_10_keyboard_10_n03085013_29318.png
cornet-s,4,821,NaN,knife,elephant,10,4661_lp_dnn_10_elephant_10_n02504013_7688.png
cornet-s,4,822,NaN,bear,elephant,10,4662_lp_dnn_10_elephant_10_n02504458_5470.png
cornet-s,4,823,NaN,bear,elephant,10,4663_lp_dnn_10_elephant_10_n02504013_8052.png
cornet-s,4,824,NaN,knife,elephant,10,4664_lp_dnn_10_elephant_10_n02504458_5243.png
cornet-s,4,825,NaN,clock,elephant,10,4665_lp_dnn_10_elephant_10_n02504013_5895.png
cornet-s,4,826,NaN,bear,elephant,10,4666_lp_dnn_10_elephant_10_n02504013_816.png
cornet-s,4,827,NaN,dog,elephant,10,4667_lp_dnn_10_elephant_10_n02504458_13245.png
cornet-s,4,828,NaN,bear,elephant,10,4668_lp_dnn_10_elephant_10_n02504458_10428.png
cornet-s,4,829,NaN,knife,elephant,10,4669_lp_dnn_10_elephant_10_n02504013_782.png
cornet-s,4,830,NaN,dog,elephant,10,4670_lp_dnn_10_elephant_10_n02504458_5434.png
cornet-s,4,831,NaN,knife,bicycle,10,4671_lp_dnn_10_bicycle_10_n03792782_7696.png
cornet-s,4,832,NaN,knife,bicycle,10,4672_lp_dnn_10_bicycle_10_n02835271_11844.png
cornet-s,4,833,NaN,knife,bicycle,10,4673_lp_dnn_10_bicycle_10_n03792782_8333.png
cornet-s,4,834,NaN,knife,bicycle,10,4674_lp_dnn_10_bicycle_10_n03792782_7212.png
cornet-s,4,835,NaN,bear,bicycle,10,4675_lp_dnn_10_bicycle_10_n03792782_17538.png
cornet-s,4,836,NaN,knife,bicycle,10,4676_lp_dnn_10_bicycle_10_n03792782_31908.png
cornet-s,4,837,NaN,bear,bicycle,10,4677_lp_dnn_10_bicycle_10_n02835271_19711.png
cornet-s,4,838,NaN,cat,bicycle,10,4678_lp_dnn_10_bicycle_10_n03792782_18896.png
cornet-s,4,839,NaN,knife,bicycle,10,4679_lp_dnn_10_bicycle_10_n03792782_14216.png
cornet-s,4,840,NaN,knife,bicycle,10,4680_lp_dnn_10_bicycle_10_n03792782_40932.png
cornet-s,4,841,NaN,knife,airplane,10,4681_lp_dnn_10_airplane_10_n02690373_6891.png
cornet-s,4,842,NaN,knife,airplane,10,4682_lp_dnn_10_airplane_10_n02690373_919.png
cornet-s,4,843,NaN,knife,airplane,10,4683_lp_dnn_10_airplane_10_n02690373_4588.png
cornet-s,4,844,NaN,knife,airplane,10,4684_lp_dnn_10_airplane_10_n02690373_19152.png
cornet-s,4,845,NaN,clock,airplane,10,4685_lp_dnn_10_airplane_10_n02690373_10510.png
cornet-s,4,846,NaN,knife,airplane,10,4686_lp_dnn_10_airplane_10_n02690373_4873.png
cornet-s,4,847,NaN,knife,airplane,10,4687_lp_dnn_10_airplane_10_n02690373_9626.png
cornet-s,4,848,NaN,clock,airplane,10,4688_lp_dnn_10_airplane_10_n02690373_18871.png
cornet-s,4,849,NaN,knife,airplane,10,4689_lp_dnn_10_airplane_10_n02690373_60.png
cornet-s,4,850,NaN,knife,airplane,10,4690_lp_dnn_10_airplane_10_n02690373_13318.png
cornet-s,4,851,NaN,knife,clock,10,4691_lp_dnn_10_clock_10_n03196217_5.png
cornet-s,4,852,NaN,knife,clock,10,4692_lp_dnn_10_clock_10_n04548280_8668.png
cornet-s,4,853,NaN,knife,clock,10,4693_lp_dnn_10_clock_10_n03196217_4486.png
cornet-s,4,854,NaN,clock,clock,10,4694_lp_dnn_10_clock_10_n03196217_8785.png
cornet-s,4,855,NaN,knife,clock,10,4695_lp_dnn_10_clock_10_n03196217_8034.png
cornet-s,4,856,NaN,clock,clock,10,4696_lp_dnn_10_clock_10_n04548280_4894.png
cornet-s,4,857,NaN,clock,clock,10,4697_lp_dnn_10_clock_10_n02708093_6352.png
cornet-s,4,858,NaN,knife,clock,10,4698_lp_dnn_10_clock_10_n02708093_570.png
cornet-s,4,859,NaN,knife,clock,10,4699_lp_dnn_10_clock_10_n03196217_5463.png
cornet-s,4,860,NaN,knife,clock,10,4700_lp_dnn_10_clock_10_n03196217_422.png
cornet-s,4,861,NaN,knife,oven,10,4701_lp_dnn_10_oven_10_n04111531_8305.png
cornet-s,4,862,NaN,knife,oven,10,4702_lp_dnn_10_oven_10_n04111531_17576.png
cornet-s,4,863,NaN,knife,oven,10,4703_lp_dnn_10_oven_10_n04111531_3314.png
cornet-s,4,864,NaN,knife,oven,10,4704_lp_dnn_10_oven_10_n04111531_2650.png
cornet-s,4,865,NaN,knife,oven,10,4705_lp_dnn_10_oven_10_n04111531_5801.png
cornet-s,4,866,NaN,knife,oven,10,4706_lp_dnn_10_oven_10_n04111531_14383.png
cornet-s,4,867,NaN,knife,oven,10,4707_lp_dnn_10_oven_10_n04111531_498.png
cornet-s,4,868,NaN,bear,oven,10,4708_lp_dnn_10_oven_10_n04111531_9289.png
cornet-s,4,869,NaN,clock,oven,10,4709_lp_dnn_10_oven_10_n04111531_2091.png
cornet-s,4,870,NaN,bear,oven,10,4710_lp_dnn_10_oven_10_n04111531_4817.png
cornet-s,4,871,NaN,knife,chair,10,4711_lp_dnn_10_chair_10_n04429376_5770.png
cornet-s,4,872,NaN,keyboard,chair,10,4712_lp_dnn_10_chair_10_n04429376_8921.png
cornet-s,4,873,NaN,keyboard,chair,10,4713_lp_dnn_10_chair_10_n04099969_2098.png
cornet-s,4,874,NaN,bottle,chair,10,4714_lp_dnn_10_chair_10_n02791124_2825.png
cornet-s,4,875,NaN,knife,chair,10,4715_lp_dnn_10_chair_10_n04429376_24716.png
cornet-s,4,876,NaN,bottle,chair,10,4716_lp_dnn_10_chair_10_n03376595_16763.png
cornet-s,4,877,NaN,knife,chair,10,4717_lp_dnn_10_chair_10_n03376595_9523.png
cornet-s,4,878,NaN,knife,chair,10,4718_lp_dnn_10_chair_10_n02791124_2343.png
cornet-s,4,879,NaN,keyboard,chair,10,4719_lp_dnn_10_chair_10_n04099969_1543.png
cornet-s,4,880,NaN,clock,chair,10,4720_lp_dnn_10_chair_10_n03376595_6759.png
cornet-s,4,881,NaN,knife,bear,10,4721_lp_dnn_10_bear_10_n02134418_4735.png
cornet-s,4,882,NaN,bear,bear,10,4722_lp_dnn_10_bear_10_n02134084_3898.png
cornet-s,4,883,NaN,knife,bear,10,4723_lp_dnn_10_bear_10_n02133161_11422.png
cornet-s,4,884,NaN,knife,bear,10,4724_lp_dnn_10_bear_10_n02134418_213.png
cornet-s,4,885,NaN,dog,bear,10,4725_lp_dnn_10_bear_10_n02133161_7401.png
cornet-s,4,886,NaN,knife,bear,10,4726_lp_dnn_10_bear_10_n02132136_14832.png
cornet-s,4,887,NaN,dog,bear,10,4727_lp_dnn_10_bear_10_n02132136_22602.png
cornet-s,4,888,NaN,dog,bear,10,4728_lp_dnn_10_bear_10_n02134418_5684.png
cornet-s,4,889,NaN,dog,bear,10,4729_lp_dnn_10_bear_10_n02132136_896.png
cornet-s,4,890,NaN,knife,bear,10,4730_lp_dnn_10_bear_10_n02133161_6593.png
cornet-s,4,891,NaN,knife,boat,10,4731_lp_dnn_10_boat_10_n03344393_4916.png
cornet-s,4,892,NaN,knife,boat,10,4732_lp_dnn_10_boat_10_n03662601_12264.png
cornet-s,4,893,NaN,knife,boat,10,4733_lp_dnn_10_boat_10_n02951358_34893.png
cornet-s,4,894,NaN,knife,boat,10,4734_lp_dnn_10_boat_10_n04273569_1280.png
cornet-s,4,895,NaN,knife,boat,10,4735_lp_dnn_10_boat_10_n03344393_2937.png
cornet-s,4,896,NaN,knife,boat,10,4736_lp_dnn_10_boat_10_n04273569_18070.png
cornet-s,4,897,NaN,knife,boat,10,4737_lp_dnn_10_boat_10_n03662601_15107.png
cornet-s,4,898,NaN,knife,boat,10,4738_lp_dnn_10_boat_10_n03344393_6984.png
cornet-s,4,899,NaN,knife,boat,10,4739_lp_dnn_10_boat_10_n04273569_16295.png
cornet-s,4,900,NaN,knife,boat,10,4740_lp_dnn_10_boat_10_n04273569_3313.png
cornet-s,4,901,NaN,bottle,cat,10,4741_lp_dnn_10_cat_10_n02123394_1783.png
cornet-s,4,902,NaN,bear,cat,10,4742_lp_dnn_10_cat_10_n02123045_458.png
cornet-s,4,903,NaN,knife,cat,10,4743_lp_dnn_10_cat_10_n02125311_36195.png
cornet-s,4,904,NaN,knife,cat,10,4744_lp_dnn_10_cat_10_n02123394_6698.png
cornet-s,4,905,NaN,bottle,cat,10,4745_lp_dnn_10_cat_10_n02124075_12327.png
cornet-s,4,906,NaN,knife,cat,10,4746_lp_dnn_10_cat_10_n02123045_2511.png
cornet-s,4,907,NaN,bear,cat,10,4747_lp_dnn_10_cat_10_n02123159_2127.png
cornet-s,4,908,NaN,knife,cat,10,4748_lp_dnn_10_cat_10_n02123045_901.png
cornet-s,4,909,NaN,knife,cat,10,4749_lp_dnn_10_cat_10_n02123159_4663.png
cornet-s,4,910,NaN,knife,cat,10,4750_lp_dnn_10_cat_10_n02123159_6395.png
cornet-s,4,911,NaN,elephant,bottle,10,4751_lp_dnn_10_bottle_10_n03983396_10237.png
cornet-s,4,912,NaN,knife,bottle,10,4752_lp_dnn_10_bottle_10_n04591713_3441.png
cornet-s,4,913,NaN,knife,bottle,10,4753_lp_dnn_10_bottle_10_n04579145_5078.png
cornet-s,4,914,NaN,knife,bottle,10,4754_lp_dnn_10_bottle_10_n02823428_8929.png
cornet-s,4,915,NaN,knife,bottle,10,4755_lp_dnn_10_bottle_10_n04557648_3662.png
cornet-s,4,916,NaN,knife,bottle,10,4756_lp_dnn_10_bottle_10_n04557648_1026.png
cornet-s,4,917,NaN,bottle,bottle,10,4757_lp_dnn_10_bottle_10_n03937543_9697.png
cornet-s,4,918,NaN,knife,bottle,10,4758_lp_dnn_10_bottle_10_n04591713_5919.png
cornet-s,4,919,NaN,knife,bottle,10,4759_lp_dnn_10_bottle_10_n03983396_12728.png
cornet-s,4,920,NaN,bear,bottle,10,4760_lp_dnn_10_bottle_10_n03983396_9776.png
cornet-s,4,921,NaN,knife,truck,10,4761_lp_dnn_10_truck_10_n04467665_62439.png
cornet-s,4,922,NaN,knife,truck,10,4762_lp_dnn_10_truck_10_n04467665_54512.png
cornet-s,4,923,NaN,knife,truck,10,4763_lp_dnn_10_truck_10_n03417042_9121.png
cornet-s,4,924,NaN,knife,truck,10,4764_lp_dnn_10_truck_10_n03796401_13310.png
cornet-s,4,925,NaN,knife,truck,10,4765_lp_dnn_10_truck_10_n04467665_67717.png
cornet-s,4,926,NaN,knife,truck,10,4766_lp_dnn_10_truck_10_n03796401_6774.png
cornet-s,4,927,NaN,knife,truck,10,4767_lp_dnn_10_truck_10_n03417042_15482.png
cornet-s,4,928,NaN,knife,truck,10,4768_lp_dnn_10_truck_10_n04467665_44850.png
cornet-s,4,929,NaN,knife,truck,10,4769_lp_dnn_10_truck_10_n03417042_3107.png
cornet-s,4,930,NaN,knife,truck,10,4770_lp_dnn_10_truck_10_n03417042_10751.png
cornet-s,4,931,NaN,knife,car,10,4771_lp_dnn_10_car_10_n03100240_15334.png
cornet-s,4,932,NaN,knife,car,10,4772_lp_dnn_10_car_10_n04285008_3227.png
cornet-s,4,933,NaN,knife,car,10,4773_lp_dnn_10_car_10_n03100240_10049.png
cornet-s,4,934,NaN,knife,car,10,4774_lp_dnn_10_car_10_n02814533_41670.png
cornet-s,4,935,NaN,knife,car,10,4775_lp_dnn_10_car_10_n03100240_2795.png
cornet-s,4,936,NaN,knife,car,10,4776_lp_dnn_10_car_10_n03100240_11406.png
cornet-s,4,937,NaN,knife,car,10,4777_lp_dnn_10_car_10_n03100240_2018.png
cornet-s,4,938,NaN,knife,car,10,4778_lp_dnn_10_car_10_n03100240_2425.png
cornet-s,4,939,NaN,bottle,car,10,4779_lp_dnn_10_car_10_n04285008_13642.png
cornet-s,4,940,NaN,knife,car,10,4780_lp_dnn_10_car_10_n03100240_9982.png
cornet-s,4,941,NaN,knife,bird,10,4781_lp_dnn_10_bird_10_n01531178_12015.png
cornet-s,4,942,NaN,knife,bird,10,4782_lp_dnn_10_bird_10_n01530575_8253.png
cornet-s,4,943,NaN,knife,bird,10,4783_lp_dnn_10_bird_10_n01537544_13410.png
cornet-s,4,944,NaN,knife,bird,10,4784_lp_dnn_10_bird_10_n02013706_3338.png
cornet-s,4,945,NaN,knife,bird,10,4785_lp_dnn_10_bird_10_n01534433_25676.png
cornet-s,4,946,NaN,knife,bird,10,4786_lp_dnn_10_bird_10_n01820546_4705.png
cornet-s,4,947,NaN,knife,bird,10,4787_lp_dnn_10_bird_10_n01622779_8380.png
cornet-s,4,948,NaN,bear,bird,10,4788_lp_dnn_10_bird_10_n01833805_10240.png
cornet-s,4,949,NaN,knife,bird,10,4789_lp_dnn_10_bird_10_n01558993_19957.png
cornet-s,4,950,NaN,knife,bird,10,4790_lp_dnn_10_bird_10_n02011460_3761.png
cornet-s,4,951,NaN,knife,dog,10,4791_lp_dnn_10_dog_10_n02108915_3472.png
cornet-s,4,952,NaN,knife,dog,10,4792_lp_dnn_10_dog_10_n02097298_4139.png
cornet-s,4,953,NaN,knife,dog,10,4793_lp_dnn_10_dog_10_n02094258_6398.png
cornet-s,4,954,NaN,bottle,dog,10,4794_lp_dnn_10_dog_10_n02108422_2679.png
cornet-s,4,955,NaN,knife,dog,10,4795_lp_dnn_10_dog_10_n02100583_17049.png
cornet-s,4,956,NaN,bear,dog,10,4796_lp_dnn_10_dog_10_n02105505_5038.png
cornet-s,4,957,NaN,knife,dog,10,4797_lp_dnn_10_dog_10_n02086240_5325.png
cornet-s,4,958,NaN,bottle,dog,10,4798_lp_dnn_10_dog_10_n02096585_811.png
cornet-s,4,959,NaN,bottle,dog,10,4799_lp_dnn_10_dog_10_n02105251_1430.png
cornet-s,4,960,NaN,bottle,dog,10,4800_lp_dnn_10_dog_10_n02111500_8654.png
cornet-s,4,961,NaN,knife,knife,15,4801_lp_dnn_15_knife_10_n03041632_29580.png
cornet-s,4,962,NaN,knife,knife,15,4802_lp_dnn_15_knife_10_n03041632_7707.png
cornet-s,4,963,NaN,knife,knife,15,4803_lp_dnn_15_knife_10_n03041632_2438.png
cornet-s,4,964,NaN,knife,knife,15,4804_lp_dnn_15_knife_10_n03041632_9488.png
cornet-s,4,965,NaN,knife,knife,15,4805_lp_dnn_15_knife_10_n03041632_76163.png
cornet-s,4,966,NaN,knife,knife,15,4806_lp_dnn_15_knife_10_n03041632_94202.png
cornet-s,4,967,NaN,knife,knife,15,4807_lp_dnn_15_knife_10_n03041632_24384.png
cornet-s,4,968,NaN,knife,knife,15,4808_lp_dnn_15_knife_10_n03041632_10540.png
cornet-s,4,969,NaN,knife,knife,15,4809_lp_dnn_15_knife_10_n03041632_30196.png
cornet-s,4,970,NaN,knife,knife,15,4810_lp_dnn_15_knife_10_n03041632_54627.png
cornet-s,4,971,NaN,dog,keyboard,15,4811_lp_dnn_15_keyboard_10_n04505470_1719.png
cornet-s,4,972,NaN,knife,keyboard,15,4812_lp_dnn_15_keyboard_10_n03085013_10366.png
cornet-s,4,973,NaN,knife,keyboard,15,4813_lp_dnn_15_keyboard_10_n04505470_5127.png
cornet-s,4,974,NaN,knife,keyboard,15,4814_lp_dnn_15_keyboard_10_n04505470_6656.png
cornet-s,4,975,NaN,knife,keyboard,15,4815_lp_dnn_15_keyboard_10_n03085013_2625.png
cornet-s,4,976,NaN,knife,keyboard,15,4816_lp_dnn_15_keyboard_10_n03085013_24102.png
cornet-s,4,977,NaN,knife,keyboard,15,4817_lp_dnn_15_keyboard_10_n04505470_1342.png
cornet-s,4,978,NaN,knife,keyboard,15,4818_lp_dnn_15_keyboard_10_n03085013_24217.png
cornet-s,4,979,NaN,knife,keyboard,15,4819_lp_dnn_15_keyboard_10_n03085013_18719.png
cornet-s,4,980,NaN,knife,keyboard,15,4820_lp_dnn_15_keyboard_10_n03085013_9318.png
cornet-s,4,981,NaN,knife,elephant,15,4821_lp_dnn_15_elephant_10_n02504013_6483.png
cornet-s,4,982,NaN,knife,elephant,15,4822_lp_dnn_15_elephant_10_n02504458_1291.png
cornet-s,4,983,NaN,knife,elephant,15,4823_lp_dnn_15_elephant_10_n02504013_1257.png
cornet-s,4,984,NaN,knife,elephant,15,4824_lp_dnn_15_elephant_10_n02504013_1604.png
cornet-s,4,985,NaN,knife,elephant,15,4825_lp_dnn_15_elephant_10_n02504458_787.png
cornet-s,4,986,NaN,bear,elephant,15,4826_lp_dnn_15_elephant_10_n02504013_5876.png
cornet-s,4,987,NaN,knife,elephant,15,4827_lp_dnn_15_elephant_10_n02504458_4372.png
cornet-s,4,988,NaN,knife,elephant,15,4828_lp_dnn_15_elephant_10_n02504458_5483.png
cornet-s,4,989,NaN,knife,elephant,15,4829_lp_dnn_15_elephant_10_n02504013_8067.png
cornet-s,4,990,NaN,knife,elephant,15,4830_lp_dnn_15_elephant_10_n02504013_23998.png
cornet-s,4,991,NaN,knife,bicycle,15,4831_lp_dnn_15_bicycle_10_n02835271_1826.png
cornet-s,4,992,NaN,knife,bicycle,15,4832_lp_dnn_15_bicycle_10_n03792782_1062.png
cornet-s,4,993,NaN,knife,bicycle,15,4833_lp_dnn_15_bicycle_10_n03792782_19744.png
cornet-s,4,994,NaN,knife,bicycle,15,4834_lp_dnn_15_bicycle_10_n02835271_20761.png
cornet-s,4,995,NaN,knife,bicycle,15,4835_lp_dnn_15_bicycle_10_n03792782_32272.png
cornet-s,4,996,NaN,knife,bicycle,15,4836_lp_dnn_15_bicycle_10_n03792782_5030.png
cornet-s,4,997,NaN,knife,bicycle,15,4837_lp_dnn_15_bicycle_10_n02835271_9623.png
cornet-s,4,998,NaN,knife,bicycle,15,4838_lp_dnn_15_bicycle_10_n03792782_24085.png
cornet-s,4,999,NaN,knife,bicycle,15,4839_lp_dnn_15_bicycle_10_n03792782_2182.png
cornet-s,4,1000,NaN,knife,bicycle,15,4840_lp_dnn_15_bicycle_10_n03792782_6196.png
cornet-s,4,1001,NaN,knife,airplane,15,4841_lp_dnn_15_airplane_10_n02690373_2509.png
cornet-s,4,1002,NaN,knife,airplane,15,4842_lp_dnn_15_airplane_10_n02690373_2675.png
cornet-s,4,1003,NaN,knife,airplane,15,4843_lp_dnn_15_airplane_10_n02690373_1815.png
cornet-s,4,1004,NaN,knife,airplane,15,4844_lp_dnn_15_airplane_10_n02690373_3620.png
cornet-s,4,1005,NaN,knife,airplane,15,4845_lp_dnn_15_airplane_10_n02690373_9376.png
cornet-s,4,1006,NaN,knife,airplane,15,4846_lp_dnn_15_airplane_10_n02690373_1589.png
cornet-s,4,1007,NaN,knife,airplane,15,4847_lp_dnn_15_airplane_10_n02690373_12813.png
cornet-s,4,1008,NaN,knife,airplane,15,4848_lp_dnn_15_airplane_10_n02690373_2643.png
cornet-s,4,1009,NaN,knife,airplane,15,4849_lp_dnn_15_airplane_10_n02690373_6834.png
cornet-s,4,1010,NaN,knife,airplane,15,4850_lp_dnn_15_airplane_10_n02690373_7457.png
cornet-s,4,1011,NaN,knife,clock,15,4851_lp_dnn_15_clock_10_n02708093_615.png
cornet-s,4,1012,NaN,knife,clock,15,4852_lp_dnn_15_clock_10_n03196217_1234.png
cornet-s,4,1013,NaN,knife,clock,15,4853_lp_dnn_15_clock_10_n03196217_3035.png
cornet-s,4,1014,NaN,knife,clock,15,4854_lp_dnn_15_clock_10_n02708093_1921.png
cornet-s,4,1015,NaN,knife,clock,15,4855_lp_dnn_15_clock_10_n02708093_3662.png
cornet-s,4,1016,NaN,knife,clock,15,4856_lp_dnn_15_clock_10_n04548280_5459.png
cornet-s,4,1017,NaN,knife,clock,15,4857_lp_dnn_15_clock_10_n02708093_3360.png
cornet-s,4,1018,NaN,knife,clock,15,4858_lp_dnn_15_clock_10_n03196217_1364.png
cornet-s,4,1019,NaN,knife,clock,15,4859_lp_dnn_15_clock_10_n02708093_7816.png
cornet-s,4,1020,NaN,knife,clock,15,4860_lp_dnn_15_clock_10_n04548280_4524.png
cornet-s,4,1021,NaN,knife,oven,15,4861_lp_dnn_15_oven_10_n04111531_9370.png
cornet-s,4,1022,NaN,knife,oven,15,4862_lp_dnn_15_oven_10_n04111531_7189.png
cornet-s,4,1023,NaN,knife,oven,15,4863_lp_dnn_15_oven_10_n04111531_6428.png
cornet-s,4,1024,NaN,knife,oven,15,4864_lp_dnn_15_oven_10_n04111531_21855.png
cornet-s,4,1025,NaN,knife,oven,15,4865_lp_dnn_15_oven_10_n04111531_10199.png
cornet-s,4,1026,NaN,knife,oven,15,4866_lp_dnn_15_oven_10_n04111531_14279.png
cornet-s,4,1027,NaN,knife,oven,15,4867_lp_dnn_15_oven_10_n04111531_5336.png
cornet-s,4,1028,NaN,knife,oven,15,4868_lp_dnn_15_oven_10_n04111531_11026.png
cornet-s,4,1029,NaN,knife,oven,15,4869_lp_dnn_15_oven_10_n04111531_6851.png
cornet-s,4,1030,NaN,knife,oven,15,4870_lp_dnn_15_oven_10_n04111531_9322.png
cornet-s,4,1031,NaN,knife,chair,15,4871_lp_dnn_15_chair_10_n03376595_2322.png
cornet-s,4,1032,NaN,knife,chair,15,4872_lp_dnn_15_chair_10_n03376595_8137.png
cornet-s,4,1033,NaN,knife,chair,15,4873_lp_dnn_15_chair_10_n04429376_21424.png
cornet-s,4,1034,NaN,knife,chair,15,4874_lp_dnn_15_chair_10_n04099969_44101.png
cornet-s,4,1035,NaN,knife,chair,15,4875_lp_dnn_15_chair_10_n04099969_37247.png
cornet-s,4,1036,NaN,knife,chair,15,4876_lp_dnn_15_chair_10_n04099969_4275.png
cornet-s,4,1037,NaN,knife,chair,15,4877_lp_dnn_15_chair_10_n02791124_7393.png
cornet-s,4,1038,NaN,knife,chair,15,4878_lp_dnn_15_chair_10_n02791124_515.png
cornet-s,4,1039,NaN,knife,chair,15,4879_lp_dnn_15_chair_10_n03376595_11346.png
cornet-s,4,1040,NaN,knife,chair,15,4880_lp_dnn_15_chair_10_n03376595_12602.png
cornet-s,4,1041,NaN,knife,bear,15,4881_lp_dnn_15_bear_10_n02134084_7675.png
cornet-s,4,1042,NaN,knife,bear,15,4882_lp_dnn_15_bear_10_n02133161_1501.png
cornet-s,4,1043,NaN,knife,bear,15,4883_lp_dnn_15_bear_10_n02134084_1112.png
cornet-s,4,1044,NaN,knife,bear,15,4884_lp_dnn_15_bear_10_n02133161_431.png
cornet-s,4,1045,NaN,knife,bear,15,4885_lp_dnn_15_bear_10_n02133161_7261.png
cornet-s,4,1046,NaN,knife,bear,15,4886_lp_dnn_15_bear_10_n02134084_2598.png
cornet-s,4,1047,NaN,knife,bear,15,4887_lp_dnn_15_bear_10_n02133161_3084.png
cornet-s,4,1048,NaN,knife,bear,15,4888_lp_dnn_15_bear_10_n02132136_1053.png
cornet-s,4,1049,NaN,knife,bear,15,4889_lp_dnn_15_bear_10_n02134084_1048.png
cornet-s,4,1050,NaN,knife,bear,15,4890_lp_dnn_15_bear_10_n02134418_4465.png
cornet-s,4,1051,NaN,knife,boat,15,4891_lp_dnn_15_boat_10_n03344393_2536.png
cornet-s,4,1052,NaN,knife,boat,15,4892_lp_dnn_15_boat_10_n02951358_4819.png
cornet-s,4,1053,NaN,knife,boat,15,4893_lp_dnn_15_boat_10_n03344393_3773.png
cornet-s,4,1054,NaN,knife,boat,15,4894_lp_dnn_15_boat_10_n03662601_35089.png
cornet-s,4,1055,NaN,knife,boat,15,4895_lp_dnn_15_boat_10_n02951358_16217.png
cornet-s,4,1056,NaN,knife,boat,15,4896_lp_dnn_15_boat_10_n04273569_395.png
cornet-s,4,1057,NaN,knife,boat,15,4897_lp_dnn_15_boat_10_n03344393_6870.png
cornet-s,4,1058,NaN,knife,boat,15,4898_lp_dnn_15_boat_10_n04273569_415.png
cornet-s,4,1059,NaN,knife,boat,15,4899_lp_dnn_15_boat_10_n04273569_23140.png
cornet-s,4,1060,NaN,knife,boat,15,4900_lp_dnn_15_boat_10_n02951358_20960.png
cornet-s,4,1061,NaN,knife,cat,15,4901_lp_dnn_15_cat_10_n02125311_30932.png
cornet-s,4,1062,NaN,knife,cat,15,4902_lp_dnn_15_cat_10_n02123597_14306.png
cornet-s,4,1063,NaN,knife,cat,15,4903_lp_dnn_15_cat_10_n02123394_6602.png
cornet-s,4,1064,NaN,knife,cat,15,4904_lp_dnn_15_cat_10_n02124075_7750.png
cornet-s,4,1065,NaN,knife,cat,15,4905_lp_dnn_15_cat_10_n02123597_5697.png
cornet-s,4,1066,NaN,knife,cat,15,4906_lp_dnn_15_cat_10_n02123045_5392.png
cornet-s,4,1067,NaN,knife,cat,15,4907_lp_dnn_15_cat_10_n02123045_449.png
cornet-s,4,1068,NaN,knife,cat,15,4908_lp_dnn_15_cat_10_n02123045_10890.png
cornet-s,4,1069,NaN,knife,cat,15,4909_lp_dnn_15_cat_10_n02124075_4357.png
cornet-s,4,1070,NaN,knife,cat,15,4910_lp_dnn_15_cat_10_n02124075_2392.png
cornet-s,4,1071,NaN,knife,bottle,15,4911_lp_dnn_15_bottle_10_n04560804_10216.png
cornet-s,4,1072,NaN,knife,bottle,15,4912_lp_dnn_15_bottle_10_n04591713_4291.png
cornet-s,4,1073,NaN,knife,bottle,15,4913_lp_dnn_15_bottle_10_n04557648_1136.png
cornet-s,4,1074,NaN,knife,bottle,15,4914_lp_dnn_15_bottle_10_n03983396_11463.png
cornet-s,4,1075,NaN,knife,bottle,15,4915_lp_dnn_15_bottle_10_n03983396_2643.png
cornet-s,4,1076,NaN,knife,bottle,15,4916_lp_dnn_15_bottle_10_n04591713_2245.png
cornet-s,4,1077,NaN,knife,bottle,15,4917_lp_dnn_15_bottle_10_n04591713_3153.png
cornet-s,4,1078,NaN,knife,bottle,15,4918_lp_dnn_15_bottle_10_n02823428_10235.png
cornet-s,4,1079,NaN,knife,bottle,15,4919_lp_dnn_15_bottle_10_n04560804_4704.png
cornet-s,4,1080,NaN,knife,bottle,15,4920_lp_dnn_15_bottle_10_n04560804_6357.png
cornet-s,4,1081,NaN,knife,truck,15,4921_lp_dnn_15_truck_10_n04467665_76380.png
cornet-s,4,1082,NaN,knife,truck,15,4922_lp_dnn_15_truck_10_n04467665_67327.png
cornet-s,4,1083,NaN,knife,truck,15,4923_lp_dnn_15_truck_10_n04467665_50746.png
cornet-s,4,1084,NaN,knife,truck,15,4924_lp_dnn_15_truck_10_n03417042_13755.png
cornet-s,4,1085,NaN,knife,truck,15,4925_lp_dnn_15_truck_10_n04467665_21594.png
cornet-s,4,1086,NaN,knife,truck,15,4926_lp_dnn_15_truck_10_n04467665_28756.png
cornet-s,4,1087,NaN,knife,truck,15,4927_lp_dnn_15_truck_10_n03796401_22775.png
cornet-s,4,1088,NaN,knife,truck,15,4928_lp_dnn_15_truck_10_n03417042_4675.png
cornet-s,4,1089,NaN,knife,truck,15,4929_lp_dnn_15_truck_10_n03417042_28610.png
cornet-s,4,1090,NaN,knife,truck,15,4930_lp_dnn_15_truck_10_n04467665_79143.png
cornet-s,4,1091,NaN,knife,car,15,4931_lp_dnn_15_car_10_n04285008_14349.png
cornet-s,4,1092,NaN,knife,car,15,4932_lp_dnn_15_car_10_n02814533_93476.png
cornet-s,4,1093,NaN,knife,car,15,4933_lp_dnn_15_car_10_n02814533_29031.png
cornet-s,4,1094,NaN,knife,car,15,4934_lp_dnn_15_car_10_n04285008_7082.png
cornet-s,4,1095,NaN,knife,car,15,4935_lp_dnn_15_car_10_n02814533_74921.png
cornet-s,4,1096,NaN,knife,car,15,4936_lp_dnn_15_car_10_n03100240_14206.png
cornet-s,4,1097,NaN,knife,car,15,4937_lp_dnn_15_car_10_n03100240_22882.png
cornet-s,4,1098,NaN,knife,car,15,4938_lp_dnn_15_car_10_n03100240_6381.png
cornet-s,4,1099,NaN,knife,car,15,4939_lp_dnn_15_car_10_n04285008_2817.png
cornet-s,4,1100,NaN,knife,car,15,4940_lp_dnn_15_car_10_n03100240_2601.png
cornet-s,4,1101,NaN,knife,bird,15,4941_lp_dnn_15_bird_10_n01833805_24956.png
cornet-s,4,1102,NaN,knife,bird,15,4942_lp_dnn_15_bird_10_n01795545_18222.png
cornet-s,4,1103,NaN,knife,bird,15,4943_lp_dnn_15_bird_10_n02056570_969.png
cornet-s,4,1104,NaN,knife,bird,15,4944_lp_dnn_15_bird_10_n01534433_13947.png
cornet-s,4,1105,NaN,knife,bird,15,4945_lp_dnn_15_bird_10_n02028035_34260.png
cornet-s,4,1106,NaN,knife,bird,15,4946_lp_dnn_15_bird_10_n01818515_2743.png
cornet-s,4,1107,NaN,knife,bird,15,4947_lp_dnn_15_bird_10_n01531178_15321.png
cornet-s,4,1108,NaN,knife,bird,15,4948_lp_dnn_15_bird_10_n01843065_6044.png
cornet-s,4,1109,NaN,knife,bird,15,4949_lp_dnn_15_bird_10_n02009229_8082.png
cornet-s,4,1110,NaN,knife,bird,15,4950_lp_dnn_15_bird_10_n02025239_2261.png
cornet-s,4,1111,NaN,knife,dog,15,4951_lp_dnn_15_dog_10_n02110063_1615.png
cornet-s,4,1112,NaN,knife,dog,15,4952_lp_dnn_15_dog_10_n02113023_12041.png
cornet-s,4,1113,NaN,knife,dog,15,4953_lp_dnn_15_dog_10_n02088238_1333.png
cornet-s,4,1114,NaN,knife,dog,15,4954_lp_dnn_15_dog_10_n02105162_8379.png
cornet-s,4,1115,NaN,bottle,dog,15,4955_lp_dnn_15_dog_10_n02097130_3313.png
cornet-s,4,1116,NaN,knife,dog,15,4956_lp_dnn_15_dog_10_n02098105_2634.png
cornet-s,4,1117,NaN,knife,dog,15,4957_lp_dnn_15_dog_10_n02107574_1470.png
cornet-s,4,1118,NaN,knife,dog,15,4958_lp_dnn_15_dog_10_n02088094_5825.png
cornet-s,4,1119,NaN,knife,dog,15,4959_lp_dnn_15_dog_10_n02105251_6387.png
cornet-s,4,1120,NaN,knife,dog,15,4960_lp_dnn_15_dog_10_n02101006_1817.png
cornet-s,4,1121,NaN,knife,knife,40,4961_lp_dnn_40_knife_10_n03041632_13509.png
cornet-s,4,1122,NaN,knife,knife,40,4962_lp_dnn_40_knife_10_n03041632_43634.png
cornet-s,4,1123,NaN,knife,knife,40,4963_lp_dnn_40_knife_10_n03041632_56436.png
cornet-s,4,1124,NaN,knife,knife,40,4964_lp_dnn_40_knife_10_n03041632_29355.png
cornet-s,4,1125,NaN,knife,knife,40,4965_lp_dnn_40_knife_10_n03041632_11741.png
cornet-s,4,1126,NaN,knife,knife,40,4966_lp_dnn_40_knife_10_n03041632_17285.png
cornet-s,4,1127,NaN,knife,knife,40,4967_lp_dnn_40_knife_10_n03041632_92637.png
cornet-s,4,1128,NaN,knife,knife,40,4968_lp_dnn_40_knife_10_n03041632_11285.png
cornet-s,4,1129,NaN,knife,knife,40,4969_lp_dnn_40_knife_10_n03041632_10109.png
cornet-s,4,1130,NaN,knife,knife,40,4970_lp_dnn_40_knife_10_n03041632_52929.png
cornet-s,4,1131,NaN,knife,keyboard,40,4971_lp_dnn_40_keyboard_10_n03085013_24275.png
cornet-s,4,1132,NaN,knife,keyboard,40,4972_lp_dnn_40_keyboard_10_n03085013_22929.png
cornet-s,4,1133,NaN,knife,keyboard,40,4973_lp_dnn_40_keyboard_10_n03085013_23289.png
cornet-s,4,1134,NaN,knife,keyboard,40,4974_lp_dnn_40_keyboard_10_n04505470_2378.png
cornet-s,4,1135,NaN,knife,keyboard,40,4975_lp_dnn_40_keyboard_10_n04505470_183.png
cornet-s,4,1136,NaN,knife,keyboard,40,4976_lp_dnn_40_keyboard_10_n03085013_974.png
cornet-s,4,1137,NaN,knife,keyboard,40,4977_lp_dnn_40_keyboard_10_n03085013_23269.png
cornet-s,4,1138,NaN,knife,keyboard,40,4978_lp_dnn_40_keyboard_10_n04505470_1416.png
cornet-s,4,1139,NaN,knife,keyboard,40,4979_lp_dnn_40_keyboard_10_n04505470_1537.png
cornet-s,4,1140,NaN,knife,keyboard,40,4980_lp_dnn_40_keyboard_10_n03085013_15887.png
cornet-s,4,1141,NaN,knife,elephant,40,4981_lp_dnn_40_elephant_10_n02504013_1502.png
cornet-s,4,1142,NaN,knife,elephant,40,4982_lp_dnn_40_elephant_10_n02504013_5734.png
cornet-s,4,1143,NaN,knife,elephant,40,4983_lp_dnn_40_elephant_10_n02504013_1500.png
cornet-s,4,1144,NaN,knife,elephant,40,4984_lp_dnn_40_elephant_10_n02504458_5827.png
cornet-s,4,1145,NaN,knife,elephant,40,4985_lp_dnn_40_elephant_10_n02504458_6135.png
cornet-s,4,1146,NaN,knife,elephant,40,4986_lp_dnn_40_elephant_10_n02504458_326.png
cornet-s,4,1147,NaN,knife,elephant,40,4987_lp_dnn_40_elephant_10_n02504458_5565.png
cornet-s,4,1148,NaN,knife,elephant,40,4988_lp_dnn_40_elephant_10_n02504458_5346.png
cornet-s,4,1149,NaN,knife,elephant,40,4989_lp_dnn_40_elephant_10_n02504013_6243.png
cornet-s,4,1150,NaN,knife,elephant,40,4990_lp_dnn_40_elephant_10_n02504458_4320.png
cornet-s,4,1151,NaN,knife,bicycle,40,4991_lp_dnn_40_bicycle_10_n03792782_1116.png
cornet-s,4,1152,NaN,knife,bicycle,40,4992_lp_dnn_40_bicycle_10_n03792782_51169.png
cornet-s,4,1153,NaN,knife,bicycle,40,4993_lp_dnn_40_bicycle_10_n02835271_916.png
cornet-s,4,1154,NaN,knife,bicycle,40,4994_lp_dnn_40_bicycle_10_n03792782_8716.png
cornet-s,4,1155,NaN,knife,bicycle,40,4995_lp_dnn_40_bicycle_10_n02835271_2661.png
cornet-s,4,1156,NaN,clock,bicycle,40,4996_lp_dnn_40_bicycle_10_n03792782_14476.png
cornet-s,4,1157,NaN,knife,bicycle,40,4997_lp_dnn_40_bicycle_10_n03792782_14605.png
cornet-s,4,1158,NaN,knife,bicycle,40,4998_lp_dnn_40_bicycle_10_n03792782_1472.png
cornet-s,4,1159,NaN,knife,bicycle,40,4999_lp_dnn_40_bicycle_10_n02835271_25744.png
cornet-s,4,1160,NaN,knife,bicycle,40,5000_lp_dnn_40_bicycle_10_n03792782_7787.png
cornet-s,4,1161,NaN,knife,airplane,40,5001_lp_dnn_40_airplane_10_n02690373_3561.png
cornet-s,4,1162,NaN,knife,airplane,40,5002_lp_dnn_40_airplane_10_n02690373_3435.png
cornet-s,4,1163,NaN,knife,airplane,40,5003_lp_dnn_40_airplane_10_n02690373_1363.png
cornet-s,4,1164,NaN,knife,airplane,40,5004_lp_dnn_40_airplane_10_n02690373_5462.png
cornet-s,4,1165,NaN,knife,airplane,40,5005_lp_dnn_40_airplane_10_n02690373_8123.png
cornet-s,4,1166,NaN,knife,airplane,40,5006_lp_dnn_40_airplane_10_n02690373_9423.png
cornet-s,4,1167,NaN,knife,airplane,40,5007_lp_dnn_40_airplane_10_n02690373_10931.png
cornet-s,4,1168,NaN,knife,airplane,40,5008_lp_dnn_40_airplane_10_n02690373_4608.png
cornet-s,4,1169,NaN,knife,airplane,40,5009_lp_dnn_40_airplane_10_n02690373_2248.png
cornet-s,4,1170,NaN,knife,airplane,40,5010_lp_dnn_40_airplane_10_n02690373_13078.png
cornet-s,4,1171,NaN,knife,clock,40,5011_lp_dnn_40_clock_10_n03196217_9589.png
cornet-s,4,1172,NaN,knife,clock,40,5012_lp_dnn_40_clock_10_n02708093_6912.png
cornet-s,4,1173,NaN,knife,clock,40,5013_lp_dnn_40_clock_10_n04548280_548.png
cornet-s,4,1174,NaN,knife,clock,40,5014_lp_dnn_40_clock_10_n04548280_9755.png
cornet-s,4,1175,NaN,knife,clock,40,5015_lp_dnn_40_clock_10_n04548280_8657.png
cornet-s,4,1176,NaN,knife,clock,40,5016_lp_dnn_40_clock_10_n04548280_8925.png
cornet-s,4,1177,NaN,knife,clock,40,5017_lp_dnn_40_clock_10_n02708093_3751.png
cornet-s,4,1178,NaN,knife,clock,40,5018_lp_dnn_40_clock_10_n02708093_1384.png
cornet-s,4,1179,NaN,knife,clock,40,5019_lp_dnn_40_clock_10_n03196217_7313.png
cornet-s,4,1180,NaN,knife,clock,40,5020_lp_dnn_40_clock_10_n04548280_286.png
cornet-s,4,1181,NaN,knife,oven,40,5021_lp_dnn_40_oven_10_n04111531_1599.png
cornet-s,4,1182,NaN,knife,oven,40,5022_lp_dnn_40_oven_10_n04111531_7283.png
cornet-s,4,1183,NaN,knife,oven,40,5023_lp_dnn_40_oven_10_n04111531_2051.png
cornet-s,4,1184,NaN,knife,oven,40,5024_lp_dnn_40_oven_10_n04111531_9344.png
cornet-s,4,1185,NaN,knife,oven,40,5025_lp_dnn_40_oven_10_n04111531_7667.png
cornet-s,4,1186,NaN,knife,oven,40,5026_lp_dnn_40_oven_10_n04111531_9297.png
cornet-s,4,1187,NaN,knife,oven,40,5027_lp_dnn_40_oven_10_n04111531_15852.png
cornet-s,4,1188,NaN,knife,oven,40,5028_lp_dnn_40_oven_10_n04111531_6181.png
cornet-s,4,1189,NaN,knife,oven,40,5029_lp_dnn_40_oven_10_n04111531_1752.png
cornet-s,4,1190,NaN,knife,oven,40,5030_lp_dnn_40_oven_10_n04111531_9490.png
cornet-s,4,1191,NaN,knife,chair,40,5031_lp_dnn_40_chair_10_n02791124_323.png
cornet-s,4,1192,NaN,knife,chair,40,5032_lp_dnn_40_chair_10_n04099969_14056.png
cornet-s,4,1193,NaN,knife,chair,40,5033_lp_dnn_40_chair_10_n03376595_19348.png
cornet-s,4,1194,NaN,knife,chair,40,5034_lp_dnn_40_chair_10_n04429376_2936.png
cornet-s,4,1195,NaN,knife,chair,40,5035_lp_dnn_40_chair_10_n04429376_30704.png
cornet-s,4,1196,NaN,knife,chair,40,5036_lp_dnn_40_chair_10_n04429376_9388.png
cornet-s,4,1197,NaN,knife,chair,40,5037_lp_dnn_40_chair_10_n03376595_2984.png
cornet-s,4,1198,NaN,knife,chair,40,5038_lp_dnn_40_chair_10_n03376595_2107.png
cornet-s,4,1199,NaN,knife,chair,40,5039_lp_dnn_40_chair_10_n04099969_9271.png
cornet-s,4,1200,NaN,knife,chair,40,5040_lp_dnn_40_chair_10_n02791124_4566.png
cornet-s,4,1201,NaN,knife,bear,40,5041_lp_dnn_40_bear_10_n02133161_1715.png
cornet-s,4,1202,NaN,knife,bear,40,5042_lp_dnn_40_bear_10_n02133161_654.png
cornet-s,4,1203,NaN,knife,bear,40,5043_lp_dnn_40_bear_10_n02133161_4146.png
cornet-s,4,1204,NaN,knife,bear,40,5044_lp_dnn_40_bear_10_n02134084_25894.png
cornet-s,4,1205,NaN,knife,bear,40,5045_lp_dnn_40_bear_10_n02134084_1821.png
cornet-s,4,1206,NaN,knife,bear,40,5046_lp_dnn_40_bear_10_n02132136_21557.png
cornet-s,4,1207,NaN,knife,bear,40,5047_lp_dnn_40_bear_10_n02132136_2815.png
cornet-s,4,1208,NaN,knife,bear,40,5048_lp_dnn_40_bear_10_n02133161_5164.png
cornet-s,4,1209,NaN,knife,bear,40,5049_lp_dnn_40_bear_10_n02134418_4128.png
cornet-s,4,1210,NaN,knife,bear,40,5050_lp_dnn_40_bear_10_n02132136_2359.png
cornet-s,4,1211,NaN,knife,boat,40,5051_lp_dnn_40_boat_10_n04273569_5593.png
cornet-s,4,1212,NaN,knife,boat,40,5052_lp_dnn_40_boat_10_n04273569_21565.png
cornet-s,4,1213,NaN,knife,boat,40,5053_lp_dnn_40_boat_10_n03344393_5874.png
cornet-s,4,1214,NaN,knife,boat,40,5054_lp_dnn_40_boat_10_n04612504_7388.png
cornet-s,4,1215,NaN,knife,boat,40,5055_lp_dnn_40_boat_10_n04612504_5650.png
cornet-s,4,1216,NaN,knife,boat,40,5056_lp_dnn_40_boat_10_n03344393_928.png
cornet-s,4,1217,NaN,knife,boat,40,5057_lp_dnn_40_boat_10_n02951358_4216.png
cornet-s,4,1218,NaN,knife,boat,40,5058_lp_dnn_40_boat_10_n03662601_7847.png
cornet-s,4,1219,NaN,knife,boat,40,5059_lp_dnn_40_boat_10_n03662601_23744.png
cornet-s,4,1220,NaN,knife,boat,40,5060_lp_dnn_40_boat_10_n03662601_1937.png
cornet-s,4,1221,NaN,knife,cat,40,5061_lp_dnn_40_cat_10_n02123597_854.png
cornet-s,4,1222,NaN,knife,cat,40,5062_lp_dnn_40_cat_10_n02123394_4713.png
cornet-s,4,1223,NaN,knife,cat,40,5063_lp_dnn_40_cat_10_n02123159_1253.png
cornet-s,4,1224,NaN,knife,cat,40,5064_lp_dnn_40_cat_10_n02125311_47759.png
cornet-s,4,1225,NaN,knife,cat,40,5065_lp_dnn_40_cat_10_n02123394_499.png
cornet-s,4,1226,NaN,knife,cat,40,5066_lp_dnn_40_cat_10_n02124075_8528.png
cornet-s,4,1227,NaN,knife,cat,40,5067_lp_dnn_40_cat_10_n02125311_29295.png
cornet-s,4,1228,NaN,knife,cat,40,5068_lp_dnn_40_cat_10_n02123045_4181.png
cornet-s,4,1229,NaN,knife,cat,40,5069_lp_dnn_40_cat_10_n02123394_6710.png
cornet-s,4,1230,NaN,knife,cat,40,5070_lp_dnn_40_cat_10_n02124075_12316.png
cornet-s,4,1231,NaN,knife,bottle,40,5071_lp_dnn_40_bottle_10_n04579145_4605.png
cornet-s,4,1232,NaN,knife,bottle,40,5072_lp_dnn_40_bottle_10_n03937543_5711.png
cornet-s,4,1233,NaN,knife,bottle,40,5073_lp_dnn_40_bottle_10_n03937543_1117.png
cornet-s,4,1234,NaN,knife,bottle,40,5074_lp_dnn_40_bottle_10_n04557648_16542.png
cornet-s,4,1235,NaN,knife,bottle,40,5075_lp_dnn_40_bottle_10_n04591713_1164.png
cornet-s,4,1236,NaN,knife,bottle,40,5076_lp_dnn_40_bottle_10_n03937543_8030.png
cornet-s,4,1237,NaN,knife,bottle,40,5077_lp_dnn_40_bottle_10_n04579145_5587.png
cornet-s,4,1238,NaN,knife,bottle,40,5078_lp_dnn_40_bottle_10_n03983396_2135.png
cornet-s,4,1239,NaN,knife,bottle,40,5079_lp_dnn_40_bottle_10_n04560804_13927.png
cornet-s,4,1240,NaN,knife,bottle,40,5080_lp_dnn_40_bottle_10_n04557648_2363.png
cornet-s,4,1241,NaN,knife,truck,40,5081_lp_dnn_40_truck_10_n03796401_599.png
cornet-s,4,1242,NaN,knife,truck,40,5082_lp_dnn_40_truck_10_n03417042_6823.png
cornet-s,4,1243,NaN,knife,truck,40,5083_lp_dnn_40_truck_10_n03417042_7209.png
cornet-s,4,1244,NaN,knife,truck,40,5084_lp_dnn_40_truck_10_n04467665_22914.png
cornet-s,4,1245,NaN,knife,truck,40,5085_lp_dnn_40_truck_10_n04467665_15019.png
cornet-s,4,1246,NaN,knife,truck,40,5086_lp_dnn_40_truck_10_n03417042_29434.png
cornet-s,4,1247,NaN,knife,truck,40,5087_lp_dnn_40_truck_10_n03417042_10117.png
cornet-s,4,1248,NaN,knife,truck,40,5088_lp_dnn_40_truck_10_n04467665_9894.png
cornet-s,4,1249,NaN,knife,truck,40,5089_lp_dnn_40_truck_10_n03417042_27675.png
cornet-s,4,1250,NaN,knife,truck,40,5090_lp_dnn_40_truck_10_n03417042_5757.png
cornet-s,4,1251,NaN,knife,car,40,5091_lp_dnn_40_car_10_n03100240_9408.png
cornet-s,4,1252,NaN,knife,car,40,5092_lp_dnn_40_car_10_n02814533_39994.png
cornet-s,4,1253,NaN,knife,car,40,5093_lp_dnn_40_car_10_n02814533_54380.png
cornet-s,4,1254,NaN,knife,car,40,5094_lp_dnn_40_car_10_n04285008_13722.png
cornet-s,4,1255,NaN,knife,car,40,5095_lp_dnn_40_car_10_n04285008_14273.png
cornet-s,4,1256,NaN,knife,car,40,5096_lp_dnn_40_car_10_n03100240_11553.png
cornet-s,4,1257,NaN,knife,car,40,5097_lp_dnn_40_car_10_n03100240_1696.png
cornet-s,4,1258,NaN,knife,car,40,5098_lp_dnn_40_car_10_n04285008_10565.png
cornet-s,4,1259,NaN,knife,car,40,5099_lp_dnn_40_car_10_n04285008_4336.png
cornet-s,4,1260,NaN,knife,car,40,5100_lp_dnn_40_car_10_n03100240_1836.png
cornet-s,4,1261,NaN,knife,bird,40,5101_lp_dnn_40_bird_10_n01829413_2673.png
cornet-s,4,1262,NaN,knife,bird,40,5102_lp_dnn_40_bird_10_n01514859_6464.png
cornet-s,4,1263,NaN,knife,bird,40,5103_lp_dnn_40_bird_10_n01817953_13771.png
cornet-s,4,1264,NaN,knife,bird,40,5104_lp_dnn_40_bird_10_n02018207_7989.png
cornet-s,4,1265,NaN,knife,bird,40,5105_lp_dnn_40_bird_10_n02056570_11140.png
cornet-s,4,1266,NaN,knife,bird,40,5106_lp_dnn_40_bird_10_n01818515_31737.png
cornet-s,4,1267,NaN,knife,bird,40,5107_lp_dnn_40_bird_10_n02007558_8176.png
cornet-s,4,1268,NaN,knife,bird,40,5108_lp_dnn_40_bird_10_n01616318_5314.png
cornet-s,4,1269,NaN,knife,bird,40,5109_lp_dnn_40_bird_10_n02009912_317.png
cornet-s,4,1270,NaN,knife,bird,40,5110_lp_dnn_40_bird_10_n01829413_1307.png
cornet-s,4,1271,NaN,knife,dog,40,5111_lp_dnn_40_dog_10_n02097209_3168.png
cornet-s,4,1272,NaN,knife,dog,40,5112_lp_dnn_40_dog_10_n02109961_24899.png
cornet-s,4,1273,NaN,knife,dog,40,5113_lp_dnn_40_dog_10_n02107908_8819.png
cornet-s,4,1274,NaN,knife,dog,40,5114_lp_dnn_40_dog_10_n02089867_7231.png
cornet-s,4,1275,NaN,knife,dog,40,5115_lp_dnn_40_dog_10_n02108422_1899.png
cornet-s,4,1276,NaN,clock,dog,40,5116_lp_dnn_40_dog_10_n02104365_177.png
cornet-s,4,1277,NaN,knife,dog,40,5117_lp_dnn_40_dog_10_n02110958_7801.png
cornet-s,4,1278,NaN,knife,dog,40,5118_lp_dnn_40_dog_10_n02091831_3713.png
cornet-s,4,1279,NaN,knife,dog,40,5119_lp_dnn_40_dog_10_n02091244_4109.png
cornet-s,4,1280,NaN,knife,dog,40,5120_lp_dnn_40_dog_10_n02101388_26105.png
