subj,session,trial,rt,object_response,category,condition,imagename
cornet-s,6,1,NaN,knife,knife,0.00,6401_nse_dnn_0.00_knife_10_n03041632_383.JPEG
cornet-s,6,2,NaN,knife,knife,0.00,6402_nse_dnn_0.00_knife_10_n03041632_21425.JPEG
cornet-s,6,3,NaN,chair,knife,0.00,6403_nse_dnn_0.00_knife_10_n03041632_16826.JPEG
cornet-s,6,4,NaN,knife,knife,0.00,6404_nse_dnn_0.00_knife_10_n03041632_22472.JPEG
cornet-s,6,5,NaN,knife,knife,0.00,6405_nse_dnn_0.00_knife_10_n03041632_45326.JPEG
cornet-s,6,6,NaN,knife,knife,0.00,6406_nse_dnn_0.00_knife_10_n03041632_5162.JPEG
cornet-s,6,7,NaN,knife,knife,0.00,6407_nse_dnn_0.00_knife_10_n03041632_33739.JPEG
cornet-s,6,8,NaN,airplane,knife,0.00,6408_nse_dnn_0.00_knife_10_n03041632_15444.JPEG
cornet-s,6,9,NaN,knife,knife,0.00,6409_nse_dnn_0.00_knife_10_n03041632_29037.JPEG
cornet-s,6,10,NaN,bottle,knife,0.00,6410_nse_dnn_0.00_knife_10_n03041632_15174.JPEG
cornet-s,6,11,NaN,bottle,keyboard,0.00,6411_nse_dnn_0.00_keyboard_10_n04505470_4789.JPEG
cornet-s,6,12,NaN,keyboard,keyboard,0.00,6412_nse_dnn_0.00_keyboard_10_n03085013_24294.JPEG
cornet-s,6,13,NaN,keyboard,keyboard,0.00,6413_nse_dnn_0.00_keyboard_10_n03085013_21241.JPEG
cornet-s,6,14,NaN,keyboard,keyboard,0.00,6414_nse_dnn_0.00_keyboard_10_n03085013_11110.JPEG
cornet-s,6,15,NaN,keyboard,keyboard,0.00,6415_nse_dnn_0.00_keyboard_10_n04505470_8512.JPEG
cornet-s,6,16,NaN,keyboard,keyboard,0.00,6416_nse_dnn_0.00_keyboard_10_n03085013_20798.JPEG
cornet-s,6,17,NaN,keyboard,keyboard,0.00,6417_nse_dnn_0.00_keyboard_10_n03085013_19439.JPEG
cornet-s,6,18,NaN,keyboard,keyboard,0.00,6418_nse_dnn_0.00_keyboard_10_n04505470_159.JPEG
cornet-s,6,19,NaN,keyboard,keyboard,0.00,6419_nse_dnn_0.00_keyboard_10_n04505470_867.JPEG
cornet-s,6,20,NaN,keyboard,keyboard,0.00,6420_nse_dnn_0.00_keyboard_10_n03085013_25800.JPEG
cornet-s,6,21,NaN,boat,elephant,0.00,6421_nse_dnn_0.00_elephant_10_n02504458_3234.JPEG
cornet-s,6,22,NaN,elephant,elephant,0.00,6422_nse_dnn_0.00_elephant_10_n02504458_6261.JPEG
cornet-s,6,23,NaN,elephant,elephant,0.00,6423_nse_dnn_0.00_elephant_10_n02504013_5894.JPEG
cornet-s,6,24,NaN,elephant,elephant,0.00,6424_nse_dnn_0.00_elephant_10_n02504458_6566.JPEG
cornet-s,6,25,NaN,elephant,elephant,0.00,6425_nse_dnn_0.00_elephant_10_n02504458_277.JPEG
cornet-s,6,26,NaN,elephant,elephant,0.00,6426_nse_dnn_0.00_elephant_10_n02504013_6376.JPEG
cornet-s,6,27,NaN,elephant,elephant,0.00,6427_nse_dnn_0.00_elephant_10_n02504458_11289.JPEG
cornet-s,6,28,NaN,elephant,elephant,0.00,6428_nse_dnn_0.00_elephant_10_n02504458_1138.JPEG
cornet-s,6,29,NaN,elephant,elephant,0.00,6429_nse_dnn_0.00_elephant_10_n02504458_1328.JPEG
cornet-s,6,30,NaN,elephant,elephant,0.00,6430_nse_dnn_0.00_elephant_10_n02504458_2928.JPEG
cornet-s,6,31,NaN,bicycle,bicycle,0.00,6431_nse_dnn_0.00_bicycle_10_n03792782_9236.JPEG
cornet-s,6,32,NaN,bicycle,bicycle,0.00,6432_nse_dnn_0.00_bicycle_10_n03792782_11597.JPEG
cornet-s,6,33,NaN,bicycle,bicycle,0.00,6433_nse_dnn_0.00_bicycle_10_n02835271_11988.JPEG
cornet-s,6,34,NaN,bicycle,bicycle,0.00,6434_nse_dnn_0.00_bicycle_10_n03792782_55401.JPEG
cornet-s,6,35,NaN,bicycle,bicycle,0.00,6435_nse_dnn_0.00_bicycle_10_n02835271_44710.JPEG
cornet-s,6,36,NaN,bicycle,bicycle,0.00,6436_nse_dnn_0.00_bicycle_10_n03792782_43328.JPEG
cornet-s,6,37,NaN,bicycle,bicycle,0.00,6437_nse_dnn_0.00_bicycle_10_n03792782_31010.JPEG
cornet-s,6,38,NaN,bicycle,bicycle,0.00,6438_nse_dnn_0.00_bicycle_10_n02835271_1665.JPEG
cornet-s,6,39,NaN,bicycle,bicycle,0.00,6439_nse_dnn_0.00_bicycle_10_n02835271_1016.JPEG
cornet-s,6,40,NaN,bicycle,bicycle,0.00,6440_nse_dnn_0.00_bicycle_10_n02835271_8308.JPEG
cornet-s,6,41,NaN,airplane,airplane,0.00,6441_nse_dnn_0.00_airplane_10_n02690373_5430.JPEG
cornet-s,6,42,NaN,airplane,airplane,0.00,6442_nse_dnn_0.00_airplane_10_n02690373_14117.JPEG
cornet-s,6,43,NaN,airplane,airplane,0.00,6443_nse_dnn_0.00_airplane_10_n02690373_8214.JPEG
cornet-s,6,44,NaN,airplane,airplane,0.00,6444_nse_dnn_0.00_airplane_10_n02690373_19438.JPEG
cornet-s,6,45,NaN,airplane,airplane,0.00,6445_nse_dnn_0.00_airplane_10_n02690373_8670.JPEG
cornet-s,6,46,NaN,airplane,airplane,0.00,6446_nse_dnn_0.00_airplane_10_n02690373_4591.JPEG
cornet-s,6,47,NaN,airplane,airplane,0.00,6447_nse_dnn_0.00_airplane_10_n02690373_5204.JPEG
cornet-s,6,48,NaN,airplane,airplane,0.00,6448_nse_dnn_0.00_airplane_10_n02690373_2607.JPEG
cornet-s,6,49,NaN,airplane,airplane,0.00,6449_nse_dnn_0.00_airplane_10_n02690373_1928.JPEG
cornet-s,6,50,NaN,airplane,airplane,0.00,6450_nse_dnn_0.00_airplane_10_n02690373_3096.JPEG
cornet-s,6,51,NaN,clock,clock,0.00,6451_nse_dnn_0.00_clock_10_n04548280_4841.JPEG
cornet-s,6,52,NaN,clock,clock,0.00,6452_nse_dnn_0.00_clock_10_n04548280_12596.JPEG
cornet-s,6,53,NaN,clock,clock,0.00,6453_nse_dnn_0.00_clock_10_n04548280_465.JPEG
cornet-s,6,54,NaN,clock,clock,0.00,6454_nse_dnn_0.00_clock_10_n02708093_4387.JPEG
cornet-s,6,55,NaN,clock,clock,0.00,6455_nse_dnn_0.00_clock_10_n03196217_6357.JPEG
cornet-s,6,56,NaN,boat,clock,0.00,6456_nse_dnn_0.00_clock_10_n02708093_8276.JPEG
cornet-s,6,57,NaN,clock,clock,0.00,6457_nse_dnn_0.00_clock_10_n04548280_5957.JPEG
cornet-s,6,58,NaN,clock,clock,0.00,6458_nse_dnn_0.00_clock_10_n02708093_3972.JPEG
cornet-s,6,59,NaN,clock,clock,0.00,6459_nse_dnn_0.00_clock_10_n04548280_5430.JPEG
cornet-s,6,60,NaN,clock,clock,0.00,6460_nse_dnn_0.00_clock_10_n02708093_4267.JPEG
cornet-s,6,61,NaN,oven,oven,0.00,6461_nse_dnn_0.00_oven_10_n04111531_2447.JPEG
cornet-s,6,62,NaN,oven,oven,0.00,6462_nse_dnn_0.00_oven_10_n04111531_14607.JPEG
cornet-s,6,63,NaN,oven,oven,0.00,6463_nse_dnn_0.00_oven_10_n04111531_4407.JPEG
cornet-s,6,64,NaN,oven,oven,0.00,6464_nse_dnn_0.00_oven_10_n04111531_11116.JPEG
cornet-s,6,65,NaN,oven,oven,0.00,6465_nse_dnn_0.00_oven_10_n04111531_585.JPEG
cornet-s,6,66,NaN,oven,oven,0.00,6466_nse_dnn_0.00_oven_10_n04111531_13906.JPEG
cornet-s,6,67,NaN,elephant,oven,0.00,6467_nse_dnn_0.00_oven_10_n04111531_2796.JPEG
cornet-s,6,68,NaN,oven,oven,0.00,6468_nse_dnn_0.00_oven_10_n04111531_3098.JPEG
cornet-s,6,69,NaN,oven,oven,0.00,6469_nse_dnn_0.00_oven_10_n04111531_21068.JPEG
cornet-s,6,70,NaN,chair,oven,0.00,6470_nse_dnn_0.00_oven_10_n04111531_3099.JPEG
cornet-s,6,71,NaN,truck,chair,0.00,6471_nse_dnn_0.00_chair_10_n02791124_5561.JPEG
cornet-s,6,72,NaN,chair,chair,0.00,6472_nse_dnn_0.00_chair_10_n02791124_1740.JPEG
cornet-s,6,73,NaN,chair,chair,0.00,6473_nse_dnn_0.00_chair_10_n04099969_23387.JPEG
cornet-s,6,74,NaN,chair,chair,0.00,6474_nse_dnn_0.00_chair_10_n03376595_10507.JPEG
cornet-s,6,75,NaN,chair,chair,0.00,6475_nse_dnn_0.00_chair_10_n02791124_16237.JPEG
cornet-s,6,76,NaN,chair,chair,0.00,6476_nse_dnn_0.00_chair_10_n04099969_14819.JPEG
cornet-s,6,77,NaN,chair,chair,0.00,6477_nse_dnn_0.00_chair_10_n04429376_29289.JPEG
cornet-s,6,78,NaN,chair,chair,0.00,6478_nse_dnn_0.00_chair_10_n04099969_12279.JPEG
cornet-s,6,79,NaN,chair,chair,0.00,6479_nse_dnn_0.00_chair_10_n02791124_2379.JPEG
cornet-s,6,80,NaN,chair,chair,0.00,6480_nse_dnn_0.00_chair_10_n02791124_450.JPEG
cornet-s,6,81,NaN,bear,bear,0.00,6481_nse_dnn_0.00_bear_10_n02134084_2866.JPEG
cornet-s,6,82,NaN,bicycle,bear,0.00,6482_nse_dnn_0.00_bear_10_n02133161_1502.JPEG
cornet-s,6,83,NaN,bear,bear,0.00,6483_nse_dnn_0.00_bear_10_n02132136_464.JPEG
cornet-s,6,84,NaN,bear,bear,0.00,6484_nse_dnn_0.00_bear_10_n02133161_4091.JPEG
cornet-s,6,85,NaN,bear,bear,0.00,6485_nse_dnn_0.00_bear_10_n02133161_1875.JPEG
cornet-s,6,86,NaN,elephant,bear,0.00,6486_nse_dnn_0.00_bear_10_n02133161_195.JPEG
cornet-s,6,87,NaN,bear,bear,0.00,6487_nse_dnn_0.00_bear_10_n02134084_6733.JPEG
cornet-s,6,88,NaN,dog,bear,0.00,6488_nse_dnn_0.00_bear_10_n02133161_4412.JPEG
cornet-s,6,89,NaN,bear,bear,0.00,6489_nse_dnn_0.00_bear_10_n02134084_10651.JPEG
cornet-s,6,90,NaN,bear,bear,0.00,6490_nse_dnn_0.00_bear_10_n02134418_3969.JPEG
cornet-s,6,91,NaN,boat,boat,0.00,6491_nse_dnn_0.00_boat_10_n03344393_3345.JPEG
cornet-s,6,92,NaN,boat,boat,0.00,6492_nse_dnn_0.00_boat_10_n02951358_33657.JPEG
cornet-s,6,93,NaN,boat,boat,0.00,6493_nse_dnn_0.00_boat_10_n03662601_12265.JPEG
cornet-s,6,94,NaN,boat,boat,0.00,6494_nse_dnn_0.00_boat_10_n03344393_9712.JPEG
cornet-s,6,95,NaN,boat,boat,0.00,6495_nse_dnn_0.00_boat_10_n03662601_26298.JPEG
cornet-s,6,96,NaN,boat,boat,0.00,6496_nse_dnn_0.00_boat_10_n04612504_13826.JPEG
cornet-s,6,97,NaN,boat,boat,0.00,6497_nse_dnn_0.00_boat_10_n03344393_8407.JPEG
cornet-s,6,98,NaN,boat,boat,0.00,6498_nse_dnn_0.00_boat_10_n03344393_5798.JPEG
cornet-s,6,99,NaN,boat,boat,0.00,6499_nse_dnn_0.00_boat_10_n02951358_34018.JPEG
cornet-s,6,100,NaN,bicycle,boat,0.00,6500_nse_dnn_0.00_boat_10_n02951358_35469.JPEG
cornet-s,6,101,NaN,cat,cat,0.00,6501_nse_dnn_0.00_cat_10_n02125311_1630.JPEG
cornet-s,6,102,NaN,cat,cat,0.00,6502_nse_dnn_0.00_cat_10_n02123159_5960.JPEG
cornet-s,6,103,NaN,cat,cat,0.00,6503_nse_dnn_0.00_cat_10_n02125311_4795.JPEG
cornet-s,6,104,NaN,cat,cat,0.00,6504_nse_dnn_0.00_cat_10_n02124075_5067.JPEG
cornet-s,6,105,NaN,cat,cat,0.00,6505_nse_dnn_0.00_cat_10_n02123597_1229.JPEG
cornet-s,6,106,NaN,bear,cat,0.00,6506_nse_dnn_0.00_cat_10_n02125311_23804.JPEG
cornet-s,6,107,NaN,cat,cat,0.00,6507_nse_dnn_0.00_cat_10_n02123045_964.JPEG
cornet-s,6,108,NaN,cat,cat,0.00,6508_nse_dnn_0.00_cat_10_n02125311_1899.JPEG
cornet-s,6,109,NaN,cat,cat,0.00,6509_nse_dnn_0.00_cat_10_n02123597_3896.JPEG
cornet-s,6,110,NaN,cat,cat,0.00,6510_nse_dnn_0.00_cat_10_n02124075_6794.JPEG
cornet-s,6,111,NaN,bottle,bottle,0.00,6511_nse_dnn_0.00_bottle_10_n04557648_2063.JPEG
cornet-s,6,112,NaN,chair,bottle,0.00,6512_nse_dnn_0.00_bottle_10_n04591713_18520.JPEG
cornet-s,6,113,NaN,bottle,bottle,0.00,6513_nse_dnn_0.00_bottle_10_n04579145_1420.JPEG
cornet-s,6,114,NaN,dog,bottle,0.00,6514_nse_dnn_0.00_bottle_10_n04557648_32346.JPEG
cornet-s,6,115,NaN,bottle,bottle,0.00,6515_nse_dnn_0.00_bottle_10_n04591713_13590.JPEG
cornet-s,6,116,NaN,bottle,bottle,0.00,6516_nse_dnn_0.00_bottle_10_n04560804_8860.JPEG
cornet-s,6,117,NaN,chair,bottle,0.00,6517_nse_dnn_0.00_bottle_10_n02823428_1034.JPEG
cornet-s,6,118,NaN,bottle,bottle,0.00,6518_nse_dnn_0.00_bottle_10_n02823428_6456.JPEG
cornet-s,6,119,NaN,knife,bottle,0.00,6519_nse_dnn_0.00_bottle_10_n04557648_764.JPEG
cornet-s,6,120,NaN,bottle,bottle,0.00,6520_nse_dnn_0.00_bottle_10_n04591713_5250.JPEG
cornet-s,6,121,NaN,truck,truck,0.00,6521_nse_dnn_0.00_truck_10_n04467665_28412.JPEG
cornet-s,6,122,NaN,truck,truck,0.00,6522_nse_dnn_0.00_truck_10_n03417042_29267.JPEG
cornet-s,6,123,NaN,truck,truck,0.00,6523_nse_dnn_0.00_truck_10_n03417042_11534.JPEG
cornet-s,6,124,NaN,truck,truck,0.00,6524_nse_dnn_0.00_truck_10_n03417042_4391.JPEG
cornet-s,6,125,NaN,truck,truck,0.00,6525_nse_dnn_0.00_truck_10_n03417042_27988.JPEG
cornet-s,6,126,NaN,truck,truck,0.00,6526_nse_dnn_0.00_truck_10_n03796401_3216.JPEG
cornet-s,6,127,NaN,truck,truck,0.00,6527_nse_dnn_0.00_truck_10_n04467665_71126.JPEG
cornet-s,6,128,NaN,truck,truck,0.00,6528_nse_dnn_0.00_truck_10_n03417042_11007.JPEG
cornet-s,6,129,NaN,truck,truck,0.00,6529_nse_dnn_0.00_truck_10_n03417042_11037.JPEG
cornet-s,6,130,NaN,truck,truck,0.00,6530_nse_dnn_0.00_truck_10_n03417042_2478.JPEG
cornet-s,6,131,NaN,car,car,0.00,6531_nse_dnn_0.00_car_10_n02814533_4118.JPEG
cornet-s,6,132,NaN,car,car,0.00,6532_nse_dnn_0.00_car_10_n03100240_16803.JPEG
cornet-s,6,133,NaN,car,car,0.00,6533_nse_dnn_0.00_car_10_n02814533_36626.JPEG
cornet-s,6,134,NaN,airplane,car,0.00,6534_nse_dnn_0.00_car_10_n04285008_885.JPEG
cornet-s,6,135,NaN,car,car,0.00,6535_nse_dnn_0.00_car_10_n04285008_6563.JPEG
cornet-s,6,136,NaN,car,car,0.00,6536_nse_dnn_0.00_car_10_n03100240_7374.JPEG
cornet-s,6,137,NaN,car,car,0.00,6537_nse_dnn_0.00_car_10_n02814533_88986.JPEG
cornet-s,6,138,NaN,truck,car,0.00,6538_nse_dnn_0.00_car_10_n02814533_86653.JPEG
cornet-s,6,139,NaN,truck,car,0.00,6539_nse_dnn_0.00_car_10_n02814533_85262.JPEG
cornet-s,6,140,NaN,car,car,0.00,6540_nse_dnn_0.00_car_10_n04285008_3840.JPEG
cornet-s,6,141,NaN,chair,bird,0.00,6541_nse_dnn_0.00_bird_10_n02011460_3474.JPEG
cornet-s,6,142,NaN,chair,bird,0.00,6542_nse_dnn_0.00_bird_10_n02011460_4446.JPEG
cornet-s,6,143,NaN,bird,bird,0.00,6543_nse_dnn_0.00_bird_10_n01824575_433.JPEG
cornet-s,6,144,NaN,bird,bird,0.00,6544_nse_dnn_0.00_bird_10_n01530575_2750.JPEG
cornet-s,6,145,NaN,bird,bird,0.00,6545_nse_dnn_0.00_bird_10_n02027492_8547.JPEG
cornet-s,6,146,NaN,bird,bird,0.00,6546_nse_dnn_0.00_bird_10_n02025239_2804.JPEG
cornet-s,6,147,NaN,bird,bird,0.00,6547_nse_dnn_0.00_bird_10_n01534433_171.JPEG
cornet-s,6,148,NaN,chair,bird,0.00,6548_nse_dnn_0.00_bird_10_n01818515_22778.JPEG
cornet-s,6,149,NaN,bird,bird,0.00,6549_nse_dnn_0.00_bird_10_n01534433_3057.JPEG
cornet-s,6,150,NaN,bird,bird,0.00,6550_nse_dnn_0.00_bird_10_n02013706_3204.JPEG
cornet-s,6,151,NaN,dog,dog,0.00,6551_nse_dnn_0.00_dog_10_n02087394_8568.JPEG
cornet-s,6,152,NaN,dog,dog,0.00,6552_nse_dnn_0.00_dog_10_n02106030_11723.JPEG
cornet-s,6,153,NaN,dog,dog,0.00,6553_nse_dnn_0.00_dog_10_n02099601_5352.JPEG
cornet-s,6,154,NaN,dog,dog,0.00,6554_nse_dnn_0.00_dog_10_n02110627_3032.JPEG
cornet-s,6,155,NaN,dog,dog,0.00,6555_nse_dnn_0.00_dog_10_n02096585_2619.JPEG
cornet-s,6,156,NaN,dog,dog,0.00,6556_nse_dnn_0.00_dog_10_n02099601_25396.JPEG
cornet-s,6,157,NaN,cat,dog,0.00,6557_nse_dnn_0.00_dog_10_n02112706_56.JPEG
cornet-s,6,158,NaN,dog,dog,0.00,6558_nse_dnn_0.00_dog_10_n02097298_14533.JPEG
cornet-s,6,159,NaN,dog,dog,0.00,6559_nse_dnn_0.00_dog_10_n02095570_1013.JPEG
cornet-s,6,160,NaN,dog,dog,0.00,6560_nse_dnn_0.00_dog_10_n02099267_1095.JPEG
cornet-s,6,161,NaN,knife,knife,0.03,6561_nse_dnn_0.03_knife_10_n03041632_36806.JPEG
cornet-s,6,162,NaN,knife,knife,0.03,6562_nse_dnn_0.03_knife_10_n03041632_29343.JPEG
cornet-s,6,163,NaN,knife,knife,0.03,6563_nse_dnn_0.03_knife_10_n03041632_23129.JPEG
cornet-s,6,164,NaN,chair,knife,0.03,6564_nse_dnn_0.03_knife_10_n03041632_89391.JPEG
cornet-s,6,165,NaN,clock,knife,0.03,6565_nse_dnn_0.03_knife_10_n03041632_21345.JPEG
cornet-s,6,166,NaN,knife,knife,0.03,6566_nse_dnn_0.03_knife_10_n03041632_24461.JPEG
cornet-s,6,167,NaN,clock,knife,0.03,6567_nse_dnn_0.03_knife_10_n03041632_22734.JPEG
cornet-s,6,168,NaN,knife,knife,0.03,6568_nse_dnn_0.03_knife_10_n03041632_38433.JPEG
cornet-s,6,169,NaN,knife,knife,0.03,6569_nse_dnn_0.03_knife_10_n03041632_50423.JPEG
cornet-s,6,170,NaN,knife,knife,0.03,6570_nse_dnn_0.03_knife_10_n03041632_50648.JPEG
cornet-s,6,171,NaN,keyboard,keyboard,0.03,6571_nse_dnn_0.03_keyboard_10_n04505470_9952.JPEG
cornet-s,6,172,NaN,boat,keyboard,0.03,6572_nse_dnn_0.03_keyboard_10_n04505470_7659.JPEG
cornet-s,6,173,NaN,chair,keyboard,0.03,6573_nse_dnn_0.03_keyboard_10_n03085013_8912.JPEG
cornet-s,6,174,NaN,keyboard,keyboard,0.03,6574_nse_dnn_0.03_keyboard_10_n04505470_5054.JPEG
cornet-s,6,175,NaN,keyboard,keyboard,0.03,6575_nse_dnn_0.03_keyboard_10_n03085013_19880.JPEG
cornet-s,6,176,NaN,keyboard,keyboard,0.03,6576_nse_dnn_0.03_keyboard_10_n03085013_15432.JPEG
cornet-s,6,177,NaN,keyboard,keyboard,0.03,6577_nse_dnn_0.03_keyboard_10_n03085013_14411.JPEG
cornet-s,6,178,NaN,keyboard,keyboard,0.03,6578_nse_dnn_0.03_keyboard_10_n04505470_3499.JPEG
cornet-s,6,179,NaN,airplane,keyboard,0.03,6579_nse_dnn_0.03_keyboard_10_n04505470_6847.JPEG
cornet-s,6,180,NaN,keyboard,keyboard,0.03,6580_nse_dnn_0.03_keyboard_10_n03085013_20138.JPEG
cornet-s,6,181,NaN,elephant,elephant,0.03,6581_nse_dnn_0.03_elephant_10_n02504458_3946.JPEG
cornet-s,6,182,NaN,elephant,elephant,0.03,6582_nse_dnn_0.03_elephant_10_n02504458_298.JPEG
cornet-s,6,183,NaN,elephant,elephant,0.03,6583_nse_dnn_0.03_elephant_10_n02504458_12578.JPEG
cornet-s,6,184,NaN,elephant,elephant,0.03,6584_nse_dnn_0.03_elephant_10_n02504013_6177.JPEG
cornet-s,6,185,NaN,elephant,elephant,0.03,6585_nse_dnn_0.03_elephant_10_n02504013_8522.JPEG
cornet-s,6,186,NaN,elephant,elephant,0.03,6586_nse_dnn_0.03_elephant_10_n02504013_6720.JPEG
cornet-s,6,187,NaN,elephant,elephant,0.03,6587_nse_dnn_0.03_elephant_10_n02504458_13583.JPEG
cornet-s,6,188,NaN,elephant,elephant,0.03,6588_nse_dnn_0.03_elephant_10_n02504458_1410.JPEG
cornet-s,6,189,NaN,truck,elephant,0.03,6589_nse_dnn_0.03_elephant_10_n02504458_1891.JPEG
cornet-s,6,190,NaN,elephant,elephant,0.03,6590_nse_dnn_0.03_elephant_10_n02504013_6742.JPEG
cornet-s,6,191,NaN,bicycle,bicycle,0.03,6591_nse_dnn_0.03_bicycle_10_n02835271_1487.JPEG
cornet-s,6,192,NaN,bicycle,bicycle,0.03,6592_nse_dnn_0.03_bicycle_10_n02835271_26897.JPEG
cornet-s,6,193,NaN,bicycle,bicycle,0.03,6593_nse_dnn_0.03_bicycle_10_n03792782_5207.JPEG
cornet-s,6,194,NaN,bicycle,bicycle,0.03,6594_nse_dnn_0.03_bicycle_10_n02835271_7685.JPEG
cornet-s,6,195,NaN,bicycle,bicycle,0.03,6595_nse_dnn_0.03_bicycle_10_n02835271_21573.JPEG
cornet-s,6,196,NaN,bicycle,bicycle,0.03,6596_nse_dnn_0.03_bicycle_10_n03792782_12433.JPEG
cornet-s,6,197,NaN,bicycle,bicycle,0.03,6597_nse_dnn_0.03_bicycle_10_n03792782_21735.JPEG
cornet-s,6,198,NaN,bicycle,bicycle,0.03,6598_nse_dnn_0.03_bicycle_10_n03792782_3440.JPEG
cornet-s,6,199,NaN,bicycle,bicycle,0.03,6599_nse_dnn_0.03_bicycle_10_n02835271_6641.JPEG
cornet-s,6,200,NaN,bicycle,bicycle,0.03,6600_nse_dnn_0.03_bicycle_10_n02835271_7053.JPEG
cornet-s,6,201,NaN,airplane,airplane,0.03,6601_nse_dnn_0.03_airplane_10_n02690373_4009.JPEG
cornet-s,6,202,NaN,airplane,airplane,0.03,6602_nse_dnn_0.03_airplane_10_n02690373_7735.JPEG
cornet-s,6,203,NaN,airplane,airplane,0.03,6603_nse_dnn_0.03_airplane_10_n02690373_2856.JPEG
cornet-s,6,204,NaN,airplane,airplane,0.03,6604_nse_dnn_0.03_airplane_10_n02690373_2981.JPEG
cornet-s,6,205,NaN,airplane,airplane,0.03,6605_nse_dnn_0.03_airplane_10_n02690373_4144.JPEG
cornet-s,6,206,NaN,airplane,airplane,0.03,6606_nse_dnn_0.03_airplane_10_n02690373_2584.JPEG
cornet-s,6,207,NaN,airplane,airplane,0.03,6607_nse_dnn_0.03_airplane_10_n02690373_8252.JPEG
cornet-s,6,208,NaN,airplane,airplane,0.03,6608_nse_dnn_0.03_airplane_10_n02690373_10727.JPEG
cornet-s,6,209,NaN,airplane,airplane,0.03,6609_nse_dnn_0.03_airplane_10_n02690373_6807.JPEG
cornet-s,6,210,NaN,airplane,airplane,0.03,6610_nse_dnn_0.03_airplane_10_n02690373_4982.JPEG
cornet-s,6,211,NaN,clock,clock,0.03,6611_nse_dnn_0.03_clock_10_n03196217_4519.JPEG
cornet-s,6,212,NaN,clock,clock,0.03,6612_nse_dnn_0.03_clock_10_n04548280_7661.JPEG
cornet-s,6,213,NaN,clock,clock,0.03,6613_nse_dnn_0.03_clock_10_n03196217_3465.JPEG
cornet-s,6,214,NaN,clock,clock,0.03,6614_nse_dnn_0.03_clock_10_n02708093_1245.JPEG
cornet-s,6,215,NaN,chair,clock,0.03,6615_nse_dnn_0.03_clock_10_n02708093_3196.JPEG
cornet-s,6,216,NaN,clock,clock,0.03,6616_nse_dnn_0.03_clock_10_n04548280_4738.JPEG
cornet-s,6,217,NaN,clock,clock,0.03,6617_nse_dnn_0.03_clock_10_n02708093_1206.JPEG
cornet-s,6,218,NaN,clock,clock,0.03,6618_nse_dnn_0.03_clock_10_n02708093_1014.JPEG
cornet-s,6,219,NaN,clock,clock,0.03,6619_nse_dnn_0.03_clock_10_n03196217_886.JPEG
cornet-s,6,220,NaN,clock,clock,0.03,6620_nse_dnn_0.03_clock_10_n03196217_3645.JPEG
cornet-s,6,221,NaN,boat,oven,0.03,6621_nse_dnn_0.03_oven_10_n04111531_5533.JPEG
cornet-s,6,222,NaN,clock,oven,0.03,6622_nse_dnn_0.03_oven_10_n04111531_21460.JPEG
cornet-s,6,223,NaN,oven,oven,0.03,6623_nse_dnn_0.03_oven_10_n04111531_5212.JPEG
cornet-s,6,224,NaN,truck,oven,0.03,6624_nse_dnn_0.03_oven_10_n04111531_7283.JPEG
cornet-s,6,225,NaN,cat,oven,0.03,6625_nse_dnn_0.03_oven_10_n04111531_5801.JPEG
cornet-s,6,226,NaN,chair,oven,0.03,6626_nse_dnn_0.03_oven_10_n04111531_5659.JPEG
cornet-s,6,227,NaN,chair,oven,0.03,6627_nse_dnn_0.03_oven_10_n04111531_12820.JPEG
cornet-s,6,228,NaN,oven,oven,0.03,6628_nse_dnn_0.03_oven_10_n04111531_21822.JPEG
cornet-s,6,229,NaN,oven,oven,0.03,6629_nse_dnn_0.03_oven_10_n04111531_1830.JPEG
cornet-s,6,230,NaN,chair,oven,0.03,6630_nse_dnn_0.03_oven_10_n04111531_2592.JPEG
cornet-s,6,231,NaN,chair,chair,0.03,6631_nse_dnn_0.03_chair_10_n03376595_12417.JPEG
cornet-s,6,232,NaN,chair,chair,0.03,6632_nse_dnn_0.03_chair_10_n02791124_28.JPEG
cornet-s,6,233,NaN,chair,chair,0.03,6633_nse_dnn_0.03_chair_10_n03376595_8163.JPEG
cornet-s,6,234,NaN,chair,chair,0.03,6634_nse_dnn_0.03_chair_10_n04099969_2848.JPEG
cornet-s,6,235,NaN,chair,chair,0.03,6635_nse_dnn_0.03_chair_10_n04099969_3711.JPEG
cornet-s,6,236,NaN,chair,chair,0.03,6636_nse_dnn_0.03_chair_10_n04429376_2349.JPEG
cornet-s,6,237,NaN,chair,chair,0.03,6637_nse_dnn_0.03_chair_10_n03376595_7755.JPEG
cornet-s,6,238,NaN,chair,chair,0.03,6638_nse_dnn_0.03_chair_10_n04099969_16159.JPEG
cornet-s,6,239,NaN,chair,chair,0.03,6639_nse_dnn_0.03_chair_10_n04429376_18296.JPEG
cornet-s,6,240,NaN,chair,chair,0.03,6640_nse_dnn_0.03_chair_10_n04099969_14155.JPEG
cornet-s,6,241,NaN,bear,bear,0.03,6641_nse_dnn_0.03_bear_10_n02134418_1425.JPEG
cornet-s,6,242,NaN,bear,bear,0.03,6642_nse_dnn_0.03_bear_10_n02132136_7584.JPEG
cornet-s,6,243,NaN,bicycle,bear,0.03,6643_nse_dnn_0.03_bear_10_n02134418_1439.JPEG
cornet-s,6,244,NaN,bear,bear,0.03,6644_nse_dnn_0.03_bear_10_n02134418_1306.JPEG
cornet-s,6,245,NaN,bear,bear,0.03,6645_nse_dnn_0.03_bear_10_n02133161_102.JPEG
cornet-s,6,246,NaN,bear,bear,0.03,6646_nse_dnn_0.03_bear_10_n02134084_4923.JPEG
cornet-s,6,247,NaN,bear,bear,0.03,6647_nse_dnn_0.03_bear_10_n02134084_20053.JPEG
cornet-s,6,248,NaN,bear,bear,0.03,6648_nse_dnn_0.03_bear_10_n02133161_2191.JPEG
cornet-s,6,249,NaN,truck,bear,0.03,6649_nse_dnn_0.03_bear_10_n02134084_13014.JPEG
cornet-s,6,250,NaN,bear,bear,0.03,6650_nse_dnn_0.03_bear_10_n02132136_9922.JPEG
cornet-s,6,251,NaN,boat,boat,0.03,6651_nse_dnn_0.03_boat_10_n04612504_18957.JPEG
cornet-s,6,252,NaN,boat,boat,0.03,6652_nse_dnn_0.03_boat_10_n02951358_15643.JPEG
cornet-s,6,253,NaN,airplane,boat,0.03,6653_nse_dnn_0.03_boat_10_n03662601_4865.JPEG
cornet-s,6,254,NaN,airplane,boat,0.03,6654_nse_dnn_0.03_boat_10_n03662601_1266.JPEG
cornet-s,6,255,NaN,truck,boat,0.03,6655_nse_dnn_0.03_boat_10_n02951358_8476.JPEG
cornet-s,6,256,NaN,boat,boat,0.03,6656_nse_dnn_0.03_boat_10_n02951358_2524.JPEG
cornet-s,6,257,NaN,boat,boat,0.03,6657_nse_dnn_0.03_boat_10_n02951358_35705.JPEG
cornet-s,6,258,NaN,airplane,boat,0.03,6658_nse_dnn_0.03_boat_10_n02951358_34782.JPEG
cornet-s,6,259,NaN,boat,boat,0.03,6659_nse_dnn_0.03_boat_10_n04612504_9741.JPEG
cornet-s,6,260,NaN,boat,boat,0.03,6660_nse_dnn_0.03_boat_10_n03344393_13952.JPEG
cornet-s,6,261,NaN,cat,cat,0.03,6661_nse_dnn_0.03_cat_10_n02123597_2509.JPEG
cornet-s,6,262,NaN,knife,cat,0.03,6662_nse_dnn_0.03_cat_10_n02123597_11421.JPEG
cornet-s,6,263,NaN,cat,cat,0.03,6663_nse_dnn_0.03_cat_10_n02124075_10085.JPEG
cornet-s,6,264,NaN,cat,cat,0.03,6664_nse_dnn_0.03_cat_10_n02124075_13696.JPEG
cornet-s,6,265,NaN,bottle,cat,0.03,6665_nse_dnn_0.03_cat_10_n02123159_5428.JPEG
cornet-s,6,266,NaN,cat,cat,0.03,6666_nse_dnn_0.03_cat_10_n02123159_7612.JPEG
cornet-s,6,267,NaN,cat,cat,0.03,6667_nse_dnn_0.03_cat_10_n02125311_53822.JPEG
cornet-s,6,268,NaN,dog,cat,0.03,6668_nse_dnn_0.03_cat_10_n02123394_530.JPEG
cornet-s,6,269,NaN,chair,cat,0.03,6669_nse_dnn_0.03_cat_10_n02125311_5198.JPEG
cornet-s,6,270,NaN,cat,cat,0.03,6670_nse_dnn_0.03_cat_10_n02123394_979.JPEG
cornet-s,6,271,NaN,bottle,bottle,0.03,6671_nse_dnn_0.03_bottle_10_n02823428_7763.JPEG
cornet-s,6,272,NaN,bottle,bottle,0.03,6672_nse_dnn_0.03_bottle_10_n03983396_6032.JPEG
cornet-s,6,273,NaN,bottle,bottle,0.03,6673_nse_dnn_0.03_bottle_10_n03983396_330.JPEG
cornet-s,6,274,NaN,bottle,bottle,0.03,6674_nse_dnn_0.03_bottle_10_n04557648_7486.JPEG
cornet-s,6,275,NaN,bottle,bottle,0.03,6675_nse_dnn_0.03_bottle_10_n03937543_5356.JPEG
cornet-s,6,276,NaN,bottle,bottle,0.03,6676_nse_dnn_0.03_bottle_10_n03937543_1459.JPEG
cornet-s,6,277,NaN,bottle,bottle,0.03,6677_nse_dnn_0.03_bottle_10_n03937543_9401.JPEG
cornet-s,6,278,NaN,bottle,bottle,0.03,6678_nse_dnn_0.03_bottle_10_n04591713_3255.JPEG
cornet-s,6,279,NaN,bottle,bottle,0.03,6679_nse_dnn_0.03_bottle_10_n04560804_9878.JPEG
cornet-s,6,280,NaN,bottle,bottle,0.03,6680_nse_dnn_0.03_bottle_10_n03983396_10916.JPEG
cornet-s,6,281,NaN,truck,truck,0.03,6681_nse_dnn_0.03_truck_10_n04467665_39237.JPEG
cornet-s,6,282,NaN,truck,truck,0.03,6682_nse_dnn_0.03_truck_10_n03796401_22643.JPEG
cornet-s,6,283,NaN,truck,truck,0.03,6683_nse_dnn_0.03_truck_10_n04467665_68754.JPEG
cornet-s,6,284,NaN,truck,truck,0.03,6684_nse_dnn_0.03_truck_10_n03417042_29303.JPEG
cornet-s,6,285,NaN,truck,truck,0.03,6685_nse_dnn_0.03_truck_10_n03417042_2056.JPEG
cornet-s,6,286,NaN,truck,truck,0.03,6686_nse_dnn_0.03_truck_10_n03417042_21024.JPEG
cornet-s,6,287,NaN,truck,truck,0.03,6687_nse_dnn_0.03_truck_10_n04467665_83590.JPEG
cornet-s,6,288,NaN,truck,truck,0.03,6688_nse_dnn_0.03_truck_10_n03417042_7287.JPEG
cornet-s,6,289,NaN,truck,truck,0.03,6689_nse_dnn_0.03_truck_10_n03417042_17513.JPEG
cornet-s,6,290,NaN,truck,truck,0.03,6690_nse_dnn_0.03_truck_10_n03796401_3158.JPEG
cornet-s,6,291,NaN,car,car,0.03,6691_nse_dnn_0.03_car_10_n02814533_27983.JPEG
cornet-s,6,292,NaN,truck,car,0.03,6692_nse_dnn_0.03_car_10_n02814533_32974.JPEG
cornet-s,6,293,NaN,car,car,0.03,6693_nse_dnn_0.03_car_10_n04285008_9675.JPEG
cornet-s,6,294,NaN,car,car,0.03,6694_nse_dnn_0.03_car_10_n04285008_3316.JPEG
cornet-s,6,295,NaN,car,car,0.03,6695_nse_dnn_0.03_car_10_n04285008_7322.JPEG
cornet-s,6,296,NaN,chair,car,0.03,6696_nse_dnn_0.03_car_10_n02814533_85059.JPEG
cornet-s,6,297,NaN,car,car,0.03,6697_nse_dnn_0.03_car_10_n03100240_18270.JPEG
cornet-s,6,298,NaN,car,car,0.03,6698_nse_dnn_0.03_car_10_n02814533_89376.JPEG
cornet-s,6,299,NaN,car,car,0.03,6699_nse_dnn_0.03_car_10_n04285008_13001.JPEG
cornet-s,6,300,NaN,car,car,0.03,6700_nse_dnn_0.03_car_10_n03100240_3537.JPEG
cornet-s,6,301,NaN,bear,bird,0.03,6701_nse_dnn_0.03_bird_10_n02009229_2767.JPEG
cornet-s,6,302,NaN,knife,bird,0.03,6702_nse_dnn_0.03_bird_10_n02002724_2888.JPEG
cornet-s,6,303,NaN,elephant,bird,0.03,6703_nse_dnn_0.03_bird_10_n02018795_4346.JPEG
cornet-s,6,304,NaN,bird,bird,0.03,6704_nse_dnn_0.03_bird_10_n01817953_10071.JPEG
cornet-s,6,305,NaN,bear,bird,0.03,6705_nse_dnn_0.03_bird_10_n01514859_11279.JPEG
cornet-s,6,306,NaN,bird,bird,0.03,6706_nse_dnn_0.03_bird_10_n01560419_20355.JPEG
cornet-s,6,307,NaN,chair,bird,0.03,6707_nse_dnn_0.03_bird_10_n01829413_5467.JPEG
cornet-s,6,308,NaN,bird,bird,0.03,6708_nse_dnn_0.03_bird_10_n01560419_2883.JPEG
cornet-s,6,309,NaN,bird,bird,0.03,6709_nse_dnn_0.03_bird_10_n01855672_6503.JPEG
cornet-s,6,310,NaN,bear,bird,0.03,6710_nse_dnn_0.03_bird_10_n02056570_8424.JPEG
cornet-s,6,311,NaN,elephant,dog,0.03,6711_nse_dnn_0.03_dog_10_n02107142_20398.JPEG
cornet-s,6,312,NaN,dog,dog,0.03,6712_nse_dnn_0.03_dog_10_n02102177_9051.JPEG
cornet-s,6,313,NaN,dog,dog,0.03,6713_nse_dnn_0.03_dog_10_n02110806_22248.JPEG
cornet-s,6,314,NaN,elephant,dog,0.03,6714_nse_dnn_0.03_dog_10_n02088466_7607.JPEG
cornet-s,6,315,NaN,dog,dog,0.03,6715_nse_dnn_0.03_dog_10_n02107683_3526.JPEG
cornet-s,6,316,NaN,truck,dog,0.03,6716_nse_dnn_0.03_dog_10_n02111129_2924.JPEG
cornet-s,6,317,NaN,cat,dog,0.03,6717_nse_dnn_0.03_dog_10_n02111277_22576.JPEG
cornet-s,6,318,NaN,elephant,dog,0.03,6718_nse_dnn_0.03_dog_10_n02092339_1268.JPEG
cornet-s,6,319,NaN,dog,dog,0.03,6719_nse_dnn_0.03_dog_10_n02098286_4539.JPEG
cornet-s,6,320,NaN,dog,dog,0.03,6720_nse_dnn_0.03_dog_10_n02097130_6702.JPEG
cornet-s,6,321,NaN,boat,knife,0.05,6721_nse_dnn_0.05_knife_10_n03041632_45569.JPEG
cornet-s,6,322,NaN,airplane,knife,0.05,6722_nse_dnn_0.05_knife_10_n03041632_30666.JPEG
cornet-s,6,323,NaN,knife,knife,0.05,6723_nse_dnn_0.05_knife_10_n03041632_34676.JPEG
cornet-s,6,324,NaN,chair,knife,0.05,6724_nse_dnn_0.05_knife_10_n03041632_33225.JPEG
cornet-s,6,325,NaN,boat,knife,0.05,6725_nse_dnn_0.05_knife_10_n03041632_12242.JPEG
cornet-s,6,326,NaN,chair,knife,0.05,6726_nse_dnn_0.05_knife_10_n03041632_18601.JPEG
cornet-s,6,327,NaN,chair,knife,0.05,6727_nse_dnn_0.05_knife_10_n03041632_28201.JPEG
cornet-s,6,328,NaN,chair,knife,0.05,6728_nse_dnn_0.05_knife_10_n03041632_81471.JPEG
cornet-s,6,329,NaN,dog,knife,0.05,6729_nse_dnn_0.05_knife_10_n03041632_9759.JPEG
cornet-s,6,330,NaN,cat,knife,0.05,6730_nse_dnn_0.05_knife_10_n03041632_94995.JPEG
cornet-s,6,331,NaN,keyboard,keyboard,0.05,6731_nse_dnn_0.05_keyboard_10_n04505470_6814.JPEG
cornet-s,6,332,NaN,keyboard,keyboard,0.05,6732_nse_dnn_0.05_keyboard_10_n04505470_3531.JPEG
cornet-s,6,333,NaN,keyboard,keyboard,0.05,6733_nse_dnn_0.05_keyboard_10_n03085013_21355.JPEG
cornet-s,6,334,NaN,keyboard,keyboard,0.05,6734_nse_dnn_0.05_keyboard_10_n04505470_4452.JPEG
cornet-s,6,335,NaN,chair,keyboard,0.05,6735_nse_dnn_0.05_keyboard_10_n04505470_2158.JPEG
cornet-s,6,336,NaN,chair,keyboard,0.05,6736_nse_dnn_0.05_keyboard_10_n03085013_25864.JPEG
cornet-s,6,337,NaN,knife,keyboard,0.05,6737_nse_dnn_0.05_keyboard_10_n03085013_17035.JPEG
cornet-s,6,338,NaN,keyboard,keyboard,0.05,6738_nse_dnn_0.05_keyboard_10_n03085013_23519.JPEG
cornet-s,6,339,NaN,keyboard,keyboard,0.05,6739_nse_dnn_0.05_keyboard_10_n04505470_5050.JPEG
cornet-s,6,340,NaN,keyboard,keyboard,0.05,6740_nse_dnn_0.05_keyboard_10_n03085013_11359.JPEG
cornet-s,6,341,NaN,elephant,elephant,0.05,6741_nse_dnn_0.05_elephant_10_n02504013_4218.JPEG
cornet-s,6,342,NaN,elephant,elephant,0.05,6742_nse_dnn_0.05_elephant_10_n02504013_1284.JPEG
cornet-s,6,343,NaN,boat,elephant,0.05,6743_nse_dnn_0.05_elephant_10_n02504013_8308.JPEG
cornet-s,6,344,NaN,truck,elephant,0.05,6744_nse_dnn_0.05_elephant_10_n02504013_10823.JPEG
cornet-s,6,345,NaN,elephant,elephant,0.05,6745_nse_dnn_0.05_elephant_10_n02504458_677.JPEG
cornet-s,6,346,NaN,elephant,elephant,0.05,6746_nse_dnn_0.05_elephant_10_n02504013_9809.JPEG
cornet-s,6,347,NaN,truck,elephant,0.05,6747_nse_dnn_0.05_elephant_10_n02504013_1900.JPEG
cornet-s,6,348,NaN,elephant,elephant,0.05,6748_nse_dnn_0.05_elephant_10_n02504458_12582.JPEG
cornet-s,6,349,NaN,chair,elephant,0.05,6749_nse_dnn_0.05_elephant_10_n02504458_9273.JPEG
cornet-s,6,350,NaN,elephant,elephant,0.05,6750_nse_dnn_0.05_elephant_10_n02504458_11693.JPEG
cornet-s,6,351,NaN,bicycle,bicycle,0.05,6751_nse_dnn_0.05_bicycle_10_n02835271_1426.JPEG
cornet-s,6,352,NaN,bicycle,bicycle,0.05,6752_nse_dnn_0.05_bicycle_10_n03792782_11989.JPEG
cornet-s,6,353,NaN,bicycle,bicycle,0.05,6753_nse_dnn_0.05_bicycle_10_n02835271_7362.JPEG
cornet-s,6,354,NaN,bicycle,bicycle,0.05,6754_nse_dnn_0.05_bicycle_10_n03792782_33761.JPEG
cornet-s,6,355,NaN,bottle,bicycle,0.05,6755_nse_dnn_0.05_bicycle_10_n03792782_3388.JPEG
cornet-s,6,356,NaN,bicycle,bicycle,0.05,6756_nse_dnn_0.05_bicycle_10_n03792782_6319.JPEG
cornet-s,6,357,NaN,bicycle,bicycle,0.05,6757_nse_dnn_0.05_bicycle_10_n03792782_6504.JPEG
cornet-s,6,358,NaN,chair,bicycle,0.05,6758_nse_dnn_0.05_bicycle_10_n03792782_12570.JPEG
cornet-s,6,359,NaN,bicycle,bicycle,0.05,6759_nse_dnn_0.05_bicycle_10_n02835271_13965.JPEG
cornet-s,6,360,NaN,bicycle,bicycle,0.05,6760_nse_dnn_0.05_bicycle_10_n03792782_15.JPEG
cornet-s,6,361,NaN,airplane,airplane,0.05,6761_nse_dnn_0.05_airplane_10_n02690373_5581.JPEG
cornet-s,6,362,NaN,airplane,airplane,0.05,6762_nse_dnn_0.05_airplane_10_n02690373_6697.JPEG
cornet-s,6,363,NaN,boat,airplane,0.05,6763_nse_dnn_0.05_airplane_10_n02690373_8406.JPEG
cornet-s,6,364,NaN,airplane,airplane,0.05,6764_nse_dnn_0.05_airplane_10_n02690373_3840.JPEG
cornet-s,6,365,NaN,airplane,airplane,0.05,6765_nse_dnn_0.05_airplane_10_n02690373_4754.JPEG
cornet-s,6,366,NaN,airplane,airplane,0.05,6766_nse_dnn_0.05_airplane_10_n02690373_3064.JPEG
cornet-s,6,367,NaN,airplane,airplane,0.05,6767_nse_dnn_0.05_airplane_10_n02690373_777.JPEG
cornet-s,6,368,NaN,airplane,airplane,0.05,6768_nse_dnn_0.05_airplane_10_n02690373_2026.JPEG
cornet-s,6,369,NaN,airplane,airplane,0.05,6769_nse_dnn_0.05_airplane_10_n02690373_871.JPEG
cornet-s,6,370,NaN,airplane,airplane,0.05,6770_nse_dnn_0.05_airplane_10_n02690373_1087.JPEG
cornet-s,6,371,NaN,cat,clock,0.05,6771_nse_dnn_0.05_clock_10_n03196217_5052.JPEG
cornet-s,6,372,NaN,clock,clock,0.05,6772_nse_dnn_0.05_clock_10_n02708093_8003.JPEG
cornet-s,6,373,NaN,clock,clock,0.05,6773_nse_dnn_0.05_clock_10_n03196217_6112.JPEG
cornet-s,6,374,NaN,clock,clock,0.05,6774_nse_dnn_0.05_clock_10_n02708093_3625.JPEG
cornet-s,6,375,NaN,clock,clock,0.05,6775_nse_dnn_0.05_clock_10_n02708093_1532.JPEG
cornet-s,6,376,NaN,clock,clock,0.05,6776_nse_dnn_0.05_clock_10_n03196217_5149.JPEG
cornet-s,6,377,NaN,bear,clock,0.05,6777_nse_dnn_0.05_clock_10_n04548280_4989.JPEG
cornet-s,6,378,NaN,clock,clock,0.05,6778_nse_dnn_0.05_clock_10_n02708093_2845.JPEG
cornet-s,6,379,NaN,clock,clock,0.05,6779_nse_dnn_0.05_clock_10_n03196217_9160.JPEG
cornet-s,6,380,NaN,clock,clock,0.05,6780_nse_dnn_0.05_clock_10_n04548280_4114.JPEG
cornet-s,6,381,NaN,boat,oven,0.05,6781_nse_dnn_0.05_oven_10_n04111531_10710.JPEG
cornet-s,6,382,NaN,oven,oven,0.05,6782_nse_dnn_0.05_oven_10_n04111531_17853.JPEG
cornet-s,6,383,NaN,chair,oven,0.05,6783_nse_dnn_0.05_oven_10_n04111531_15710.JPEG
cornet-s,6,384,NaN,chair,oven,0.05,6784_nse_dnn_0.05_oven_10_n04111531_6500.JPEG
cornet-s,6,385,NaN,chair,oven,0.05,6785_nse_dnn_0.05_oven_10_n04111531_15718.JPEG
cornet-s,6,386,NaN,chair,oven,0.05,6786_nse_dnn_0.05_oven_10_n04111531_7168.JPEG
cornet-s,6,387,NaN,clock,oven,0.05,6787_nse_dnn_0.05_oven_10_n04111531_5927.JPEG
cornet-s,6,388,NaN,bicycle,oven,0.05,6788_nse_dnn_0.05_oven_10_n04111531_6508.JPEG
cornet-s,6,389,NaN,chair,oven,0.05,6789_nse_dnn_0.05_oven_10_n04111531_2241.JPEG
cornet-s,6,390,NaN,oven,oven,0.05,6790_nse_dnn_0.05_oven_10_n04111531_17072.JPEG
cornet-s,6,391,NaN,chair,chair,0.05,6791_nse_dnn_0.05_chair_10_n03376595_2388.JPEG
cornet-s,6,392,NaN,chair,chair,0.05,6792_nse_dnn_0.05_chair_10_n03376595_12982.JPEG
cornet-s,6,393,NaN,chair,chair,0.05,6793_nse_dnn_0.05_chair_10_n04099969_10261.JPEG
cornet-s,6,394,NaN,chair,chair,0.05,6794_nse_dnn_0.05_chair_10_n04099969_573.JPEG
cornet-s,6,395,NaN,chair,chair,0.05,6795_nse_dnn_0.05_chair_10_n04099969_48432.JPEG
cornet-s,6,396,NaN,chair,chair,0.05,6796_nse_dnn_0.05_chair_10_n04429376_24319.JPEG
cornet-s,6,397,NaN,bottle,chair,0.05,6797_nse_dnn_0.05_chair_10_n02791124_2057.JPEG
cornet-s,6,398,NaN,chair,chair,0.05,6798_nse_dnn_0.05_chair_10_n04429376_19617.JPEG
cornet-s,6,399,NaN,chair,chair,0.05,6799_nse_dnn_0.05_chair_10_n02791124_16253.JPEG
cornet-s,6,400,NaN,chair,chair,0.05,6800_nse_dnn_0.05_chair_10_n03376595_9139.JPEG
cornet-s,6,401,NaN,bear,bear,0.05,6801_nse_dnn_0.05_bear_10_n02132136_21271.JPEG
cornet-s,6,402,NaN,bicycle,bear,0.05,6802_nse_dnn_0.05_bear_10_n02133161_1737.JPEG
cornet-s,6,403,NaN,bear,bear,0.05,6803_nse_dnn_0.05_bear_10_n02134084_21407.JPEG
cornet-s,6,404,NaN,bear,bear,0.05,6804_nse_dnn_0.05_bear_10_n02134084_2190.JPEG
cornet-s,6,405,NaN,dog,bear,0.05,6805_nse_dnn_0.05_bear_10_n02132136_12191.JPEG
cornet-s,6,406,NaN,bear,bear,0.05,6806_nse_dnn_0.05_bear_10_n02134418_4364.JPEG
cornet-s,6,407,NaN,bear,bear,0.05,6807_nse_dnn_0.05_bear_10_n02132136_19300.JPEG
cornet-s,6,408,NaN,bear,bear,0.05,6808_nse_dnn_0.05_bear_10_n02134084_12136.JPEG
cornet-s,6,409,NaN,bear,bear,0.05,6809_nse_dnn_0.05_bear_10_n02134084_4992.JPEG
cornet-s,6,410,NaN,bear,bear,0.05,6810_nse_dnn_0.05_bear_10_n02132136_9292.JPEG
cornet-s,6,411,NaN,airplane,boat,0.05,6811_nse_dnn_0.05_boat_10_n04273569_19971.JPEG
cornet-s,6,412,NaN,boat,boat,0.05,6812_nse_dnn_0.05_boat_10_n03344393_2301.JPEG
cornet-s,6,413,NaN,boat,boat,0.05,6813_nse_dnn_0.05_boat_10_n03662601_611.JPEG
cornet-s,6,414,NaN,airplane,boat,0.05,6814_nse_dnn_0.05_boat_10_n04273569_12426.JPEG
cornet-s,6,415,NaN,boat,boat,0.05,6815_nse_dnn_0.05_boat_10_n03344393_7503.JPEG
cornet-s,6,416,NaN,boat,boat,0.05,6816_nse_dnn_0.05_boat_10_n02951358_34783.JPEG
cornet-s,6,417,NaN,boat,boat,0.05,6817_nse_dnn_0.05_boat_10_n03662601_12982.JPEG
cornet-s,6,418,NaN,boat,boat,0.05,6818_nse_dnn_0.05_boat_10_n03344393_216.JPEG
cornet-s,6,419,NaN,boat,boat,0.05,6819_nse_dnn_0.05_boat_10_n02951358_31796.JPEG
cornet-s,6,420,NaN,boat,boat,0.05,6820_nse_dnn_0.05_boat_10_n04612504_6982.JPEG
cornet-s,6,421,NaN,elephant,cat,0.05,6821_nse_dnn_0.05_cat_10_n02123597_134.JPEG
cornet-s,6,422,NaN,clock,cat,0.05,6822_nse_dnn_0.05_cat_10_n02125311_18801.JPEG
cornet-s,6,423,NaN,cat,cat,0.05,6823_nse_dnn_0.05_cat_10_n02123045_5173.JPEG
cornet-s,6,424,NaN,cat,cat,0.05,6824_nse_dnn_0.05_cat_10_n02123045_9071.JPEG
cornet-s,6,425,NaN,cat,cat,0.05,6825_nse_dnn_0.05_cat_10_n02123597_6991.JPEG
cornet-s,6,426,NaN,chair,cat,0.05,6826_nse_dnn_0.05_cat_10_n02123597_13706.JPEG
cornet-s,6,427,NaN,cat,cat,0.05,6827_nse_dnn_0.05_cat_10_n02123045_4111.JPEG
cornet-s,6,428,NaN,cat,cat,0.05,6828_nse_dnn_0.05_cat_10_n02123597_18525.JPEG
cornet-s,6,429,NaN,cat,cat,0.05,6829_nse_dnn_0.05_cat_10_n02124075_12299.JPEG
cornet-s,6,430,NaN,cat,cat,0.05,6830_nse_dnn_0.05_cat_10_n02123597_6758.JPEG
cornet-s,6,431,NaN,bottle,bottle,0.05,6831_nse_dnn_0.05_bottle_10_n04579145_1660.JPEG
cornet-s,6,432,NaN,bottle,bottle,0.05,6832_nse_dnn_0.05_bottle_10_n03983396_14364.JPEG
cornet-s,6,433,NaN,boat,bottle,0.05,6833_nse_dnn_0.05_bottle_10_n02823428_7565.JPEG
cornet-s,6,434,NaN,bottle,bottle,0.05,6834_nse_dnn_0.05_bottle_10_n04557648_4126.JPEG
cornet-s,6,435,NaN,bottle,bottle,0.05,6835_nse_dnn_0.05_bottle_10_n04557648_4255.JPEG
cornet-s,6,436,NaN,bottle,bottle,0.05,6836_nse_dnn_0.05_bottle_10_n04591713_1702.JPEG
cornet-s,6,437,NaN,elephant,bottle,0.05,6837_nse_dnn_0.05_bottle_10_n04557648_2501.JPEG
cornet-s,6,438,NaN,bottle,bottle,0.05,6838_nse_dnn_0.05_bottle_10_n04591713_36.JPEG
cornet-s,6,439,NaN,bottle,bottle,0.05,6839_nse_dnn_0.05_bottle_10_n03983396_12156.JPEG
cornet-s,6,440,NaN,bottle,bottle,0.05,6840_nse_dnn_0.05_bottle_10_n04560804_9149.JPEG
cornet-s,6,441,NaN,truck,truck,0.05,6841_nse_dnn_0.05_truck_10_n03796401_19889.JPEG
cornet-s,6,442,NaN,truck,truck,0.05,6842_nse_dnn_0.05_truck_10_n03796401_9245.JPEG
cornet-s,6,443,NaN,truck,truck,0.05,6843_nse_dnn_0.05_truck_10_n04467665_906.JPEG
cornet-s,6,444,NaN,truck,truck,0.05,6844_nse_dnn_0.05_truck_10_n03417042_12626.JPEG
cornet-s,6,445,NaN,truck,truck,0.05,6845_nse_dnn_0.05_truck_10_n04467665_939.JPEG
cornet-s,6,446,NaN,chair,truck,0.05,6846_nse_dnn_0.05_truck_10_n03796401_1082.JPEG
cornet-s,6,447,NaN,elephant,truck,0.05,6847_nse_dnn_0.05_truck_10_n03417042_12002.JPEG
cornet-s,6,448,NaN,truck,truck,0.05,6848_nse_dnn_0.05_truck_10_n04467665_14656.JPEG
cornet-s,6,449,NaN,truck,truck,0.05,6849_nse_dnn_0.05_truck_10_n04467665_38695.JPEG
cornet-s,6,450,NaN,truck,truck,0.05,6850_nse_dnn_0.05_truck_10_n03796401_4684.JPEG
cornet-s,6,451,NaN,car,car,0.05,6851_nse_dnn_0.05_car_10_n02814533_93092.JPEG
cornet-s,6,452,NaN,car,car,0.05,6852_nse_dnn_0.05_car_10_n04285008_15119.JPEG
cornet-s,6,453,NaN,airplane,car,0.05,6853_nse_dnn_0.05_car_10_n03100240_4013.JPEG
cornet-s,6,454,NaN,car,car,0.05,6854_nse_dnn_0.05_car_10_n02814533_10251.JPEG
cornet-s,6,455,NaN,truck,car,0.05,6855_nse_dnn_0.05_car_10_n03100240_7257.JPEG
cornet-s,6,456,NaN,car,car,0.05,6856_nse_dnn_0.05_car_10_n02814533_44090.JPEG
cornet-s,6,457,NaN,car,car,0.05,6857_nse_dnn_0.05_car_10_n02814533_77552.JPEG
cornet-s,6,458,NaN,bicycle,car,0.05,6858_nse_dnn_0.05_car_10_n04285008_3410.JPEG
cornet-s,6,459,NaN,car,car,0.05,6859_nse_dnn_0.05_car_10_n04285008_5005.JPEG
cornet-s,6,460,NaN,car,car,0.05,6860_nse_dnn_0.05_car_10_n04285008_5884.JPEG
cornet-s,6,461,NaN,cat,bird,0.05,6861_nse_dnn_0.05_bird_10_n02028035_7166.JPEG
cornet-s,6,462,NaN,elephant,bird,0.05,6862_nse_dnn_0.05_bird_10_n01622779_1820.JPEG
cornet-s,6,463,NaN,elephant,bird,0.05,6863_nse_dnn_0.05_bird_10_n02017213_2399.JPEG
cornet-s,6,464,NaN,boat,bird,0.05,6864_nse_dnn_0.05_bird_10_n02025239_228.JPEG
cornet-s,6,465,NaN,bird,bird,0.05,6865_nse_dnn_0.05_bird_10_n01601694_11396.JPEG
cornet-s,6,466,NaN,bear,bird,0.05,6866_nse_dnn_0.05_bird_10_n01819313_18841.JPEG
cornet-s,6,467,NaN,boat,bird,0.05,6867_nse_dnn_0.05_bird_10_n01530575_1925.JPEG
cornet-s,6,468,NaN,elephant,bird,0.05,6868_nse_dnn_0.05_bird_10_n02009229_2132.JPEG
cornet-s,6,469,NaN,bear,bird,0.05,6869_nse_dnn_0.05_bird_10_n02018207_14454.JPEG
cornet-s,6,470,NaN,boat,bird,0.05,6870_nse_dnn_0.05_bird_10_n02027492_4899.JPEG
cornet-s,6,471,NaN,dog,dog,0.05,6871_nse_dnn_0.05_dog_10_n02097474_4460.JPEG
cornet-s,6,472,NaN,bicycle,dog,0.05,6872_nse_dnn_0.05_dog_10_n02099267_2269.JPEG
cornet-s,6,473,NaN,bear,dog,0.05,6873_nse_dnn_0.05_dog_10_n02102318_9629.JPEG
cornet-s,6,474,NaN,bear,dog,0.05,6874_nse_dnn_0.05_dog_10_n02110063_869.JPEG
cornet-s,6,475,NaN,boat,dog,0.05,6875_nse_dnn_0.05_dog_10_n02099267_19821.JPEG
cornet-s,6,476,NaN,chair,dog,0.05,6876_nse_dnn_0.05_dog_10_n02100583_1776.JPEG
cornet-s,6,477,NaN,chair,dog,0.05,6877_nse_dnn_0.05_dog_10_n02091134_16005.JPEG
cornet-s,6,478,NaN,bottle,dog,0.05,6878_nse_dnn_0.05_dog_10_n02099849_8219.JPEG
cornet-s,6,479,NaN,bicycle,dog,0.05,6879_nse_dnn_0.05_dog_10_n02105641_10733.JPEG
cornet-s,6,480,NaN,dog,dog,0.05,6880_nse_dnn_0.05_dog_10_n02107908_4669.JPEG
cornet-s,6,481,NaN,chair,knife,0.10,6881_nse_dnn_0.10_knife_10_n03041632_5801.JPEG
cornet-s,6,482,NaN,keyboard,knife,0.10,6882_nse_dnn_0.10_knife_10_n03041632_24883.JPEG
cornet-s,6,483,NaN,chair,knife,0.10,6883_nse_dnn_0.10_knife_10_n03041632_18859.JPEG
cornet-s,6,484,NaN,knife,knife,0.10,6884_nse_dnn_0.10_knife_10_n03041632_35764.JPEG
cornet-s,6,485,NaN,keyboard,knife,0.10,6885_nse_dnn_0.10_knife_10_n03041632_20413.JPEG
cornet-s,6,486,NaN,bottle,knife,0.10,6886_nse_dnn_0.10_knife_10_n03041632_36789.JPEG
cornet-s,6,487,NaN,keyboard,knife,0.10,6887_nse_dnn_0.10_knife_10_n03041632_102764.JPEG
cornet-s,6,488,NaN,bicycle,knife,0.10,6888_nse_dnn_0.10_knife_10_n03041632_81630.JPEG
cornet-s,6,489,NaN,truck,knife,0.10,6889_nse_dnn_0.10_knife_10_n03041632_52702.JPEG
cornet-s,6,490,NaN,chair,knife,0.10,6890_nse_dnn_0.10_knife_10_n03041632_12651.JPEG
cornet-s,6,491,NaN,keyboard,keyboard,0.10,6891_nse_dnn_0.10_keyboard_10_n04505470_4086.JPEG
cornet-s,6,492,NaN,keyboard,keyboard,0.10,6892_nse_dnn_0.10_keyboard_10_n03085013_2335.JPEG
cornet-s,6,493,NaN,chair,keyboard,0.10,6893_nse_dnn_0.10_keyboard_10_n03085013_2752.JPEG
cornet-s,6,494,NaN,keyboard,keyboard,0.10,6894_nse_dnn_0.10_keyboard_10_n04505470_3345.JPEG
cornet-s,6,495,NaN,keyboard,keyboard,0.10,6895_nse_dnn_0.10_keyboard_10_n04505470_7736.JPEG
cornet-s,6,496,NaN,chair,keyboard,0.10,6896_nse_dnn_0.10_keyboard_10_n03085013_9209.JPEG
cornet-s,6,497,NaN,keyboard,keyboard,0.10,6897_nse_dnn_0.10_keyboard_10_n04505470_6080.JPEG
cornet-s,6,498,NaN,keyboard,keyboard,0.10,6898_nse_dnn_0.10_keyboard_10_n03085013_20601.JPEG
cornet-s,6,499,NaN,knife,keyboard,0.10,6899_nse_dnn_0.10_keyboard_10_n04505470_494.JPEG
cornet-s,6,500,NaN,keyboard,keyboard,0.10,6900_nse_dnn_0.10_keyboard_10_n04505470_4655.JPEG
cornet-s,6,501,NaN,chair,elephant,0.10,6901_nse_dnn_0.10_elephant_10_n02504458_3575.JPEG
cornet-s,6,502,NaN,chair,elephant,0.10,6902_nse_dnn_0.10_elephant_10_n02504013_13097.JPEG
cornet-s,6,503,NaN,bear,elephant,0.10,6903_nse_dnn_0.10_elephant_10_n02504458_3730.JPEG
cornet-s,6,504,NaN,clock,elephant,0.10,6904_nse_dnn_0.10_elephant_10_n02504013_4955.JPEG
cornet-s,6,505,NaN,elephant,elephant,0.10,6905_nse_dnn_0.10_elephant_10_n02504458_574.JPEG
cornet-s,6,506,NaN,chair,elephant,0.10,6906_nse_dnn_0.10_elephant_10_n02504458_5059.JPEG
cornet-s,6,507,NaN,chair,elephant,0.10,6907_nse_dnn_0.10_elephant_10_n02504458_1131.JPEG
cornet-s,6,508,NaN,elephant,elephant,0.10,6908_nse_dnn_0.10_elephant_10_n02504013_2859.JPEG
cornet-s,6,509,NaN,boat,elephant,0.10,6909_nse_dnn_0.10_elephant_10_n02504013_1072.JPEG
cornet-s,6,510,NaN,elephant,elephant,0.10,6910_nse_dnn_0.10_elephant_10_n02504013_517.JPEG
cornet-s,6,511,NaN,clock,bicycle,0.10,6911_nse_dnn_0.10_bicycle_10_n02835271_14732.JPEG
cornet-s,6,512,NaN,chair,bicycle,0.10,6912_nse_dnn_0.10_bicycle_10_n03792782_8799.JPEG
cornet-s,6,513,NaN,boat,bicycle,0.10,6913_nse_dnn_0.10_bicycle_10_n03792782_2960.JPEG
cornet-s,6,514,NaN,bicycle,bicycle,0.10,6914_nse_dnn_0.10_bicycle_10_n03792782_16470.JPEG
cornet-s,6,515,NaN,clock,bicycle,0.10,6915_nse_dnn_0.10_bicycle_10_n03792782_34545.JPEG
cornet-s,6,516,NaN,clock,bicycle,0.10,6916_nse_dnn_0.10_bicycle_10_n03792782_11237.JPEG
cornet-s,6,517,NaN,chair,bicycle,0.10,6917_nse_dnn_0.10_bicycle_10_n02835271_22977.JPEG
cornet-s,6,518,NaN,bicycle,bicycle,0.10,6918_nse_dnn_0.10_bicycle_10_n03792782_1477.JPEG
cornet-s,6,519,NaN,elephant,bicycle,0.10,6919_nse_dnn_0.10_bicycle_10_n03792782_14293.JPEG
cornet-s,6,520,NaN,bicycle,bicycle,0.10,6920_nse_dnn_0.10_bicycle_10_n03792782_6146.JPEG
cornet-s,6,521,NaN,boat,airplane,0.10,6921_nse_dnn_0.10_airplane_10_n02690373_18111.JPEG
cornet-s,6,522,NaN,boat,airplane,0.10,6922_nse_dnn_0.10_airplane_10_n02690373_6549.JPEG
cornet-s,6,523,NaN,chair,airplane,0.10,6923_nse_dnn_0.10_airplane_10_n02690373_9170.JPEG
cornet-s,6,524,NaN,airplane,airplane,0.10,6924_nse_dnn_0.10_airplane_10_n02690373_9318.JPEG
cornet-s,6,525,NaN,airplane,airplane,0.10,6925_nse_dnn_0.10_airplane_10_n02690373_757.JPEG
cornet-s,6,526,NaN,boat,airplane,0.10,6926_nse_dnn_0.10_airplane_10_n02690373_466.JPEG
cornet-s,6,527,NaN,boat,airplane,0.10,6927_nse_dnn_0.10_airplane_10_n02690373_5055.JPEG
cornet-s,6,528,NaN,airplane,airplane,0.10,6928_nse_dnn_0.10_airplane_10_n02690373_10181.JPEG
cornet-s,6,529,NaN,chair,airplane,0.10,6929_nse_dnn_0.10_airplane_10_n02690373_4233.JPEG
cornet-s,6,530,NaN,clock,airplane,0.10,6930_nse_dnn_0.10_airplane_10_n02690373_4320.JPEG
cornet-s,6,531,NaN,chair,clock,0.10,6931_nse_dnn_0.10_clock_10_n04548280_2712.JPEG
cornet-s,6,532,NaN,clock,clock,0.10,6932_nse_dnn_0.10_clock_10_n04548280_3396.JPEG
cornet-s,6,533,NaN,clock,clock,0.10,6933_nse_dnn_0.10_clock_10_n02708093_1002.JPEG
cornet-s,6,534,NaN,bottle,clock,0.10,6934_nse_dnn_0.10_clock_10_n02708093_7015.JPEG
cornet-s,6,535,NaN,clock,clock,0.10,6935_nse_dnn_0.10_clock_10_n04548280_3171.JPEG
cornet-s,6,536,NaN,clock,clock,0.10,6936_nse_dnn_0.10_clock_10_n02708093_5803.JPEG
cornet-s,6,537,NaN,clock,clock,0.10,6937_nse_dnn_0.10_clock_10_n04548280_8841.JPEG
cornet-s,6,538,NaN,clock,clock,0.10,6938_nse_dnn_0.10_clock_10_n02708093_1282.JPEG
cornet-s,6,539,NaN,clock,clock,0.10,6939_nse_dnn_0.10_clock_10_n02708093_3019.JPEG
cornet-s,6,540,NaN,chair,clock,0.10,6940_nse_dnn_0.10_clock_10_n04548280_4349.JPEG
cornet-s,6,541,NaN,chair,oven,0.10,6941_nse_dnn_0.10_oven_10_n04111531_5904.JPEG
cornet-s,6,542,NaN,chair,oven,0.10,6942_nse_dnn_0.10_oven_10_n04111531_3977.JPEG
cornet-s,6,543,NaN,chair,oven,0.10,6943_nse_dnn_0.10_oven_10_n04111531_10465.JPEG
cornet-s,6,544,NaN,chair,oven,0.10,6944_nse_dnn_0.10_oven_10_n04111531_5756.JPEG
cornet-s,6,545,NaN,bicycle,oven,0.10,6945_nse_dnn_0.10_oven_10_n04111531_12843.JPEG
cornet-s,6,546,NaN,chair,oven,0.10,6946_nse_dnn_0.10_oven_10_n04111531_1128.JPEG
cornet-s,6,547,NaN,keyboard,oven,0.10,6947_nse_dnn_0.10_oven_10_n04111531_5168.JPEG
cornet-s,6,548,NaN,chair,oven,0.10,6948_nse_dnn_0.10_oven_10_n04111531_10216.JPEG
cornet-s,6,549,NaN,bear,oven,0.10,6949_nse_dnn_0.10_oven_10_n04111531_12080.JPEG
cornet-s,6,550,NaN,clock,oven,0.10,6950_nse_dnn_0.10_oven_10_n04111531_4817.JPEG
cornet-s,6,551,NaN,clock,chair,0.10,6951_nse_dnn_0.10_chair_10_n02791124_3103.JPEG
cornet-s,6,552,NaN,chair,chair,0.10,6952_nse_dnn_0.10_chair_10_n04099969_9416.JPEG
cornet-s,6,553,NaN,clock,chair,0.10,6953_nse_dnn_0.10_chair_10_n04429376_23089.JPEG
cornet-s,6,554,NaN,dog,chair,0.10,6954_nse_dnn_0.10_chair_10_n04099969_26693.JPEG
cornet-s,6,555,NaN,chair,chair,0.10,6955_nse_dnn_0.10_chair_10_n02791124_13901.JPEG
cornet-s,6,556,NaN,clock,chair,0.10,6956_nse_dnn_0.10_chair_10_n03376595_15439.JPEG
cornet-s,6,557,NaN,chair,chair,0.10,6957_nse_dnn_0.10_chair_10_n04429376_3696.JPEG
cornet-s,6,558,NaN,chair,chair,0.10,6958_nse_dnn_0.10_chair_10_n04099969_22250.JPEG
cornet-s,6,559,NaN,chair,chair,0.10,6959_nse_dnn_0.10_chair_10_n04099969_3312.JPEG
cornet-s,6,560,NaN,chair,chair,0.10,6960_nse_dnn_0.10_chair_10_n02791124_992.JPEG
cornet-s,6,561,NaN,boat,bear,0.10,6961_nse_dnn_0.10_bear_10_n02134084_890.JPEG
cornet-s,6,562,NaN,bear,bear,0.10,6962_nse_dnn_0.10_bear_10_n02134418_6256.JPEG
cornet-s,6,563,NaN,chair,bear,0.10,6963_nse_dnn_0.10_bear_10_n02133161_223.JPEG
cornet-s,6,564,NaN,chair,bear,0.10,6964_nse_dnn_0.10_bear_10_n02132136_10767.JPEG
cornet-s,6,565,NaN,clock,bear,0.10,6965_nse_dnn_0.10_bear_10_n02134418_5874.JPEG
cornet-s,6,566,NaN,chair,bear,0.10,6966_nse_dnn_0.10_bear_10_n02132136_22513.JPEG
cornet-s,6,567,NaN,cat,bear,0.10,6967_nse_dnn_0.10_bear_10_n02132136_8416.JPEG
cornet-s,6,568,NaN,bear,bear,0.10,6968_nse_dnn_0.10_bear_10_n02134084_4386.JPEG
cornet-s,6,569,NaN,chair,bear,0.10,6969_nse_dnn_0.10_bear_10_n02134418_4374.JPEG
cornet-s,6,570,NaN,bear,bear,0.10,6970_nse_dnn_0.10_bear_10_n02134084_3931.JPEG
cornet-s,6,571,NaN,boat,boat,0.10,6971_nse_dnn_0.10_boat_10_n02951358_3245.JPEG
cornet-s,6,572,NaN,chair,boat,0.10,6972_nse_dnn_0.10_boat_10_n03662601_4497.JPEG
cornet-s,6,573,NaN,boat,boat,0.10,6973_nse_dnn_0.10_boat_10_n04273569_6702.JPEG
cornet-s,6,574,NaN,clock,boat,0.10,6974_nse_dnn_0.10_boat_10_n04612504_18926.JPEG
cornet-s,6,575,NaN,truck,boat,0.10,6975_nse_dnn_0.10_boat_10_n03344393_13584.JPEG
cornet-s,6,576,NaN,boat,boat,0.10,6976_nse_dnn_0.10_boat_10_n03344393_11332.JPEG
cornet-s,6,577,NaN,clock,boat,0.10,6977_nse_dnn_0.10_boat_10_n03344393_3055.JPEG
cornet-s,6,578,NaN,elephant,boat,0.10,6978_nse_dnn_0.10_boat_10_n03344393_8597.JPEG
cornet-s,6,579,NaN,boat,boat,0.10,6979_nse_dnn_0.10_boat_10_n03344393_8319.JPEG
cornet-s,6,580,NaN,boat,boat,0.10,6980_nse_dnn_0.10_boat_10_n02951358_2629.JPEG
cornet-s,6,581,NaN,cat,cat,0.10,6981_nse_dnn_0.10_cat_10_n02125311_7220.JPEG
cornet-s,6,582,NaN,cat,cat,0.10,6982_nse_dnn_0.10_cat_10_n02123045_472.JPEG
cornet-s,6,583,NaN,cat,cat,0.10,6983_nse_dnn_0.10_cat_10_n02123045_22205.JPEG
cornet-s,6,584,NaN,chair,cat,0.10,6984_nse_dnn_0.10_cat_10_n02123159_4924.JPEG
cornet-s,6,585,NaN,bear,cat,0.10,6985_nse_dnn_0.10_cat_10_n02123597_1994.JPEG
cornet-s,6,586,NaN,clock,cat,0.10,6986_nse_dnn_0.10_cat_10_n02123597_595.JPEG
cornet-s,6,587,NaN,cat,cat,0.10,6987_nse_dnn_0.10_cat_10_n02125311_807.JPEG
cornet-s,6,588,NaN,cat,cat,0.10,6988_nse_dnn_0.10_cat_10_n02123394_8629.JPEG
cornet-s,6,589,NaN,bear,cat,0.10,6989_nse_dnn_0.10_cat_10_n02123045_16279.JPEG
cornet-s,6,590,NaN,cat,cat,0.10,6990_nse_dnn_0.10_cat_10_n02123045_2869.JPEG
cornet-s,6,591,NaN,knife,bottle,0.10,6991_nse_dnn_0.10_bottle_10_n03937543_5578.JPEG
cornet-s,6,592,NaN,chair,bottle,0.10,6992_nse_dnn_0.10_bottle_10_n04591713_11520.JPEG
cornet-s,6,593,NaN,bear,bottle,0.10,6993_nse_dnn_0.10_bottle_10_n04557648_2817.JPEG
cornet-s,6,594,NaN,chair,bottle,0.10,6994_nse_dnn_0.10_bottle_10_n03983396_12728.JPEG
cornet-s,6,595,NaN,clock,bottle,0.10,6995_nse_dnn_0.10_bottle_10_n04591713_1813.JPEG
cornet-s,6,596,NaN,chair,bottle,0.10,6996_nse_dnn_0.10_bottle_10_n03983396_4285.JPEG
cornet-s,6,597,NaN,boat,bottle,0.10,6997_nse_dnn_0.10_bottle_10_n04557648_2571.JPEG
cornet-s,6,598,NaN,bottle,bottle,0.10,6998_nse_dnn_0.10_bottle_10_n02823428_6516.JPEG
cornet-s,6,599,NaN,chair,bottle,0.10,6999_nse_dnn_0.10_bottle_10_n04579145_3581.JPEG
cornet-s,6,600,NaN,chair,bottle,0.10,7000_nse_dnn_0.10_bottle_10_n04557648_6406.JPEG
cornet-s,6,601,NaN,truck,truck,0.10,7001_nse_dnn_0.10_truck_10_n03417042_12765.JPEG
cornet-s,6,602,NaN,boat,truck,0.10,7002_nse_dnn_0.10_truck_10_n04467665_43850.JPEG
cornet-s,6,603,NaN,truck,truck,0.10,7003_nse_dnn_0.10_truck_10_n04467665_78473.JPEG
cornet-s,6,604,NaN,truck,truck,0.10,7004_nse_dnn_0.10_truck_10_n04467665_3298.JPEG
cornet-s,6,605,NaN,chair,truck,0.10,7005_nse_dnn_0.10_truck_10_n03796401_2927.JPEG
cornet-s,6,606,NaN,bicycle,truck,0.10,7006_nse_dnn_0.10_truck_10_n03417042_8297.JPEG
cornet-s,6,607,NaN,truck,truck,0.10,7007_nse_dnn_0.10_truck_10_n03417042_17865.JPEG
cornet-s,6,608,NaN,truck,truck,0.10,7008_nse_dnn_0.10_truck_10_n03417042_3940.JPEG
cornet-s,6,609,NaN,chair,truck,0.10,7009_nse_dnn_0.10_truck_10_n04467665_21942.JPEG
cornet-s,6,610,NaN,clock,truck,0.10,7010_nse_dnn_0.10_truck_10_n03796401_978.JPEG
cornet-s,6,611,NaN,boat,car,0.10,7011_nse_dnn_0.10_car_10_n03100240_3151.JPEG
cornet-s,6,612,NaN,chair,car,0.10,7012_nse_dnn_0.10_car_10_n04285008_9708.JPEG
cornet-s,6,613,NaN,boat,car,0.10,7013_nse_dnn_0.10_car_10_n02814533_81616.JPEG
cornet-s,6,614,NaN,airplane,car,0.10,7014_nse_dnn_0.10_car_10_n04285008_1970.JPEG
cornet-s,6,615,NaN,truck,car,0.10,7015_nse_dnn_0.10_car_10_n03100240_20935.JPEG
cornet-s,6,616,NaN,airplane,car,0.10,7016_nse_dnn_0.10_car_10_n03100240_5762.JPEG
cornet-s,6,617,NaN,chair,car,0.10,7017_nse_dnn_0.10_car_10_n03100240_4765.JPEG
cornet-s,6,618,NaN,boat,car,0.10,7018_nse_dnn_0.10_car_10_n04285008_11658.JPEG
cornet-s,6,619,NaN,car,car,0.10,7019_nse_dnn_0.10_car_10_n04285008_9942.JPEG
cornet-s,6,620,NaN,truck,car,0.10,7020_nse_dnn_0.10_car_10_n02814533_41282.JPEG
cornet-s,6,621,NaN,clock,bird,0.10,7021_nse_dnn_0.10_bird_10_n01560419_6181.JPEG
cornet-s,6,622,NaN,cat,bird,0.10,7022_nse_dnn_0.10_bird_10_n01820546_1352.JPEG
cornet-s,6,623,NaN,chair,bird,0.10,7023_nse_dnn_0.10_bird_10_n01614925_12159.JPEG
cornet-s,6,624,NaN,chair,bird,0.10,7024_nse_dnn_0.10_bird_10_n01558993_256.JPEG
cornet-s,6,625,NaN,clock,bird,0.10,7025_nse_dnn_0.10_bird_10_n01824575_3131.JPEG
cornet-s,6,626,NaN,bear,bird,0.10,7026_nse_dnn_0.10_bird_10_n02007558_2971.JPEG
cornet-s,6,627,NaN,bear,bird,0.10,7027_nse_dnn_0.10_bird_10_n01558993_4702.JPEG
cornet-s,6,628,NaN,bottle,bird,0.10,7028_nse_dnn_0.10_bird_10_n01532829_2742.JPEG
cornet-s,6,629,NaN,bottle,bird,0.10,7029_nse_dnn_0.10_bird_10_n02033041_7761.JPEG
cornet-s,6,630,NaN,keyboard,bird,0.10,7030_nse_dnn_0.10_bird_10_n02002724_2380.JPEG
cornet-s,6,631,NaN,cat,dog,0.10,7031_nse_dnn_0.10_dog_10_n02109047_8590.JPEG
cornet-s,6,632,NaN,dog,dog,0.10,7032_nse_dnn_0.10_dog_10_n02089078_5099.JPEG
cornet-s,6,633,NaN,cat,dog,0.10,7033_nse_dnn_0.10_dog_10_n02100735_4835.JPEG
cornet-s,6,634,NaN,bear,dog,0.10,7034_nse_dnn_0.10_dog_10_n02088094_5326.JPEG
cornet-s,6,635,NaN,clock,dog,0.10,7035_nse_dnn_0.10_dog_10_n02102177_5337.JPEG
cornet-s,6,636,NaN,cat,dog,0.10,7036_nse_dnn_0.10_dog_10_n02086240_11018.JPEG
cornet-s,6,637,NaN,bear,dog,0.10,7037_nse_dnn_0.10_dog_10_n02096051_6950.JPEG
cornet-s,6,638,NaN,bear,dog,0.10,7038_nse_dnn_0.10_dog_10_n02110185_9281.JPEG
cornet-s,6,639,NaN,boat,dog,0.10,7039_nse_dnn_0.10_dog_10_n02086910_4939.JPEG
cornet-s,6,640,NaN,bear,dog,0.10,7040_nse_dnn_0.10_dog_10_n02093428_6494.JPEG
cornet-s,6,641,NaN,chair,knife,0.20,7041_nse_dnn_0.20_knife_10_n03041632_24114.JPEG
cornet-s,6,642,NaN,knife,knife,0.20,7042_nse_dnn_0.20_knife_10_n03041632_30553.JPEG
cornet-s,6,643,NaN,elephant,knife,0.20,7043_nse_dnn_0.20_knife_10_n03041632_52848.JPEG
cornet-s,6,644,NaN,chair,knife,0.20,7044_nse_dnn_0.20_knife_10_n03041632_51225.JPEG
cornet-s,6,645,NaN,knife,knife,0.20,7045_nse_dnn_0.20_knife_10_n03041632_55953.JPEG
cornet-s,6,646,NaN,keyboard,knife,0.20,7046_nse_dnn_0.20_knife_10_n03041632_54732.JPEG
cornet-s,6,647,NaN,chair,knife,0.20,7047_nse_dnn_0.20_knife_10_n03041632_38535.JPEG
cornet-s,6,648,NaN,chair,knife,0.20,7048_nse_dnn_0.20_knife_10_n03041632_25656.JPEG
cornet-s,6,649,NaN,knife,knife,0.20,7049_nse_dnn_0.20_knife_10_n03041632_18126.JPEG
cornet-s,6,650,NaN,boat,knife,0.20,7050_nse_dnn_0.20_knife_10_n03041632_12130.JPEG
cornet-s,6,651,NaN,clock,keyboard,0.20,7051_nse_dnn_0.20_keyboard_10_n04505470_4893.JPEG
cornet-s,6,652,NaN,keyboard,keyboard,0.20,7052_nse_dnn_0.20_keyboard_10_n03085013_24374.JPEG
cornet-s,6,653,NaN,chair,keyboard,0.20,7053_nse_dnn_0.20_keyboard_10_n04505470_4273.JPEG
cornet-s,6,654,NaN,clock,keyboard,0.20,7054_nse_dnn_0.20_keyboard_10_n03085013_18674.JPEG
cornet-s,6,655,NaN,cat,keyboard,0.20,7055_nse_dnn_0.20_keyboard_10_n03085013_23562.JPEG
cornet-s,6,656,NaN,chair,keyboard,0.20,7056_nse_dnn_0.20_keyboard_10_n03085013_21030.JPEG
cornet-s,6,657,NaN,chair,keyboard,0.20,7057_nse_dnn_0.20_keyboard_10_n03085013_30899.JPEG
cornet-s,6,658,NaN,clock,keyboard,0.20,7058_nse_dnn_0.20_keyboard_10_n03085013_15907.JPEG
cornet-s,6,659,NaN,chair,keyboard,0.20,7059_nse_dnn_0.20_keyboard_10_n04505470_375.JPEG
cornet-s,6,660,NaN,clock,keyboard,0.20,7060_nse_dnn_0.20_keyboard_10_n03085013_22442.JPEG
cornet-s,6,661,NaN,bear,elephant,0.20,7061_nse_dnn_0.20_elephant_10_n02504013_1909.JPEG
cornet-s,6,662,NaN,elephant,elephant,0.20,7062_nse_dnn_0.20_elephant_10_n02504013_420.JPEG
cornet-s,6,663,NaN,bear,elephant,0.20,7063_nse_dnn_0.20_elephant_10_n02504013_3969.JPEG
cornet-s,6,664,NaN,chair,elephant,0.20,7064_nse_dnn_0.20_elephant_10_n02504458_1153.JPEG
cornet-s,6,665,NaN,boat,elephant,0.20,7065_nse_dnn_0.20_elephant_10_n02504458_2135.JPEG
cornet-s,6,666,NaN,boat,elephant,0.20,7066_nse_dnn_0.20_elephant_10_n02504458_3118.JPEG
cornet-s,6,667,NaN,bear,elephant,0.20,7067_nse_dnn_0.20_elephant_10_n02504458_3287.JPEG
cornet-s,6,668,NaN,bear,elephant,0.20,7068_nse_dnn_0.20_elephant_10_n02504013_3834.JPEG
cornet-s,6,669,NaN,elephant,elephant,0.20,7069_nse_dnn_0.20_elephant_10_n02504458_778.JPEG
cornet-s,6,670,NaN,chair,elephant,0.20,7070_nse_dnn_0.20_elephant_10_n02504013_466.JPEG
cornet-s,6,671,NaN,chair,bicycle,0.20,7071_nse_dnn_0.20_bicycle_10_n02835271_4160.JPEG
cornet-s,6,672,NaN,chair,bicycle,0.20,7072_nse_dnn_0.20_bicycle_10_n03792782_12752.JPEG
cornet-s,6,673,NaN,elephant,bicycle,0.20,7073_nse_dnn_0.20_bicycle_10_n03792782_17538.JPEG
cornet-s,6,674,NaN,chair,bicycle,0.20,7074_nse_dnn_0.20_bicycle_10_n03792782_952.JPEG
cornet-s,6,675,NaN,knife,bicycle,0.20,7075_nse_dnn_0.20_bicycle_10_n03792782_16703.JPEG
cornet-s,6,676,NaN,knife,bicycle,0.20,7076_nse_dnn_0.20_bicycle_10_n03792782_18769.JPEG
cornet-s,6,677,NaN,cat,bicycle,0.20,7077_nse_dnn_0.20_bicycle_10_n03792782_44296.JPEG
cornet-s,6,678,NaN,clock,bicycle,0.20,7078_nse_dnn_0.20_bicycle_10_n02835271_12806.JPEG
cornet-s,6,679,NaN,clock,bicycle,0.20,7079_nse_dnn_0.20_bicycle_10_n03792782_13923.JPEG
cornet-s,6,680,NaN,elephant,bicycle,0.20,7080_nse_dnn_0.20_bicycle_10_n03792782_15138.JPEG
cornet-s,6,681,NaN,chair,airplane,0.20,7081_nse_dnn_0.20_airplane_10_n02690373_4727.JPEG
cornet-s,6,682,NaN,chair,airplane,0.20,7082_nse_dnn_0.20_airplane_10_n02690373_7145.JPEG
cornet-s,6,683,NaN,chair,airplane,0.20,7083_nse_dnn_0.20_airplane_10_n02690373_4202.JPEG
cornet-s,6,684,NaN,chair,airplane,0.20,7084_nse_dnn_0.20_airplane_10_n02690373_2908.JPEG
cornet-s,6,685,NaN,clock,airplane,0.20,7085_nse_dnn_0.20_airplane_10_n02690373_3775.JPEG
cornet-s,6,686,NaN,clock,airplane,0.20,7086_nse_dnn_0.20_airplane_10_n02690373_7094.JPEG
cornet-s,6,687,NaN,chair,airplane,0.20,7087_nse_dnn_0.20_airplane_10_n02690373_5149.JPEG
cornet-s,6,688,NaN,chair,airplane,0.20,7088_nse_dnn_0.20_airplane_10_n02690373_4753.JPEG
cornet-s,6,689,NaN,chair,airplane,0.20,7089_nse_dnn_0.20_airplane_10_n02690373_9218.JPEG
cornet-s,6,690,NaN,chair,airplane,0.20,7090_nse_dnn_0.20_airplane_10_n02690373_6491.JPEG
cornet-s,6,691,NaN,boat,clock,0.20,7091_nse_dnn_0.20_clock_10_n03196217_1009.JPEG
cornet-s,6,692,NaN,keyboard,clock,0.20,7092_nse_dnn_0.20_clock_10_n03196217_6090.JPEG
cornet-s,6,693,NaN,knife,clock,0.20,7093_nse_dnn_0.20_clock_10_n03196217_445.JPEG
cornet-s,6,694,NaN,chair,clock,0.20,7094_nse_dnn_0.20_clock_10_n02708093_1975.JPEG
cornet-s,6,695,NaN,clock,clock,0.20,7095_nse_dnn_0.20_clock_10_n02708093_7885.JPEG
cornet-s,6,696,NaN,clock,clock,0.20,7096_nse_dnn_0.20_clock_10_n02708093_6874.JPEG
cornet-s,6,697,NaN,clock,clock,0.20,7097_nse_dnn_0.20_clock_10_n03196217_66.JPEG
cornet-s,6,698,NaN,clock,clock,0.20,7098_nse_dnn_0.20_clock_10_n03196217_5787.JPEG
cornet-s,6,699,NaN,clock,clock,0.20,7099_nse_dnn_0.20_clock_10_n02708093_7827.JPEG
cornet-s,6,700,NaN,clock,clock,0.20,7100_nse_dnn_0.20_clock_10_n04548280_6814.JPEG
cornet-s,6,701,NaN,clock,oven,0.20,7101_nse_dnn_0.20_oven_10_n04111531_4963.JPEG
cornet-s,6,702,NaN,bear,oven,0.20,7102_nse_dnn_0.20_oven_10_n04111531_10537.JPEG
cornet-s,6,703,NaN,chair,oven,0.20,7103_nse_dnn_0.20_oven_10_n04111531_10199.JPEG
cornet-s,6,704,NaN,chair,oven,0.20,7104_nse_dnn_0.20_oven_10_n04111531_4116.JPEG
cornet-s,6,705,NaN,knife,oven,0.20,7105_nse_dnn_0.20_oven_10_n04111531_6975.JPEG
cornet-s,6,706,NaN,clock,oven,0.20,7106_nse_dnn_0.20_oven_10_n04111531_14951.JPEG
cornet-s,6,707,NaN,clock,oven,0.20,7107_nse_dnn_0.20_oven_10_n04111531_2116.JPEG
cornet-s,6,708,NaN,boat,oven,0.20,7108_nse_dnn_0.20_oven_10_n04111531_14543.JPEG
cornet-s,6,709,NaN,chair,oven,0.20,7109_nse_dnn_0.20_oven_10_n04111531_12589.JPEG
cornet-s,6,710,NaN,chair,oven,0.20,7110_nse_dnn_0.20_oven_10_n04111531_1580.JPEG
cornet-s,6,711,NaN,chair,chair,0.20,7111_nse_dnn_0.20_chair_10_n03376595_13982.JPEG
cornet-s,6,712,NaN,knife,chair,0.20,7112_nse_dnn_0.20_chair_10_n04099969_1696.JPEG
cornet-s,6,713,NaN,chair,chair,0.20,7113_nse_dnn_0.20_chair_10_n02791124_139.JPEG
cornet-s,6,714,NaN,boat,chair,0.20,7114_nse_dnn_0.20_chair_10_n02791124_515.JPEG
cornet-s,6,715,NaN,chair,chair,0.20,7115_nse_dnn_0.20_chair_10_n03376595_18229.JPEG
cornet-s,6,716,NaN,boat,chair,0.20,7116_nse_dnn_0.20_chair_10_n02791124_549.JPEG
cornet-s,6,717,NaN,boat,chair,0.20,7117_nse_dnn_0.20_chair_10_n04429376_16139.JPEG
cornet-s,6,718,NaN,chair,chair,0.20,7118_nse_dnn_0.20_chair_10_n04099969_9091.JPEG
cornet-s,6,719,NaN,clock,chair,0.20,7119_nse_dnn_0.20_chair_10_n04099969_6241.JPEG
cornet-s,6,720,NaN,chair,chair,0.20,7120_nse_dnn_0.20_chair_10_n04429376_10449.JPEG
cornet-s,6,721,NaN,clock,bear,0.20,7121_nse_dnn_0.20_bear_10_n02133161_13375.JPEG
cornet-s,6,722,NaN,clock,bear,0.20,7122_nse_dnn_0.20_bear_10_n02132136_1412.JPEG
cornet-s,6,723,NaN,boat,bear,0.20,7123_nse_dnn_0.20_bear_10_n02134084_1730.JPEG
cornet-s,6,724,NaN,boat,bear,0.20,7124_nse_dnn_0.20_bear_10_n02134418_1281.JPEG
cornet-s,6,725,NaN,chair,bear,0.20,7125_nse_dnn_0.20_bear_10_n02134418_5537.JPEG
cornet-s,6,726,NaN,chair,bear,0.20,7126_nse_dnn_0.20_bear_10_n02133161_9746.JPEG
cornet-s,6,727,NaN,cat,bear,0.20,7127_nse_dnn_0.20_bear_10_n02133161_835.JPEG
cornet-s,6,728,NaN,cat,bear,0.20,7128_nse_dnn_0.20_bear_10_n02133161_489.JPEG
cornet-s,6,729,NaN,cat,bear,0.20,7129_nse_dnn_0.20_bear_10_n02132136_11933.JPEG
cornet-s,6,730,NaN,clock,bear,0.20,7130_nse_dnn_0.20_bear_10_n02134084_18800.JPEG
cornet-s,6,731,NaN,chair,boat,0.20,7131_nse_dnn_0.20_boat_10_n03662601_9205.JPEG
cornet-s,6,732,NaN,clock,boat,0.20,7132_nse_dnn_0.20_boat_10_n03344393_403.JPEG
cornet-s,6,733,NaN,bear,boat,0.20,7133_nse_dnn_0.20_boat_10_n04612504_8958.JPEG
cornet-s,6,734,NaN,chair,boat,0.20,7134_nse_dnn_0.20_boat_10_n02951358_20407.JPEG
cornet-s,6,735,NaN,chair,boat,0.20,7135_nse_dnn_0.20_boat_10_n03662601_18186.JPEG
cornet-s,6,736,NaN,clock,boat,0.20,7136_nse_dnn_0.20_boat_10_n04273569_3722.JPEG
cornet-s,6,737,NaN,clock,boat,0.20,7137_nse_dnn_0.20_boat_10_n03662601_34260.JPEG
cornet-s,6,738,NaN,chair,boat,0.20,7138_nse_dnn_0.20_boat_10_n03662601_32082.JPEG
cornet-s,6,739,NaN,clock,boat,0.20,7139_nse_dnn_0.20_boat_10_n03662601_4255.JPEG
cornet-s,6,740,NaN,chair,boat,0.20,7140_nse_dnn_0.20_boat_10_n03344393_4884.JPEG
cornet-s,6,741,NaN,clock,cat,0.20,7141_nse_dnn_0.20_cat_10_n02123045_4042.JPEG
cornet-s,6,742,NaN,chair,cat,0.20,7142_nse_dnn_0.20_cat_10_n02125311_32261.JPEG
cornet-s,6,743,NaN,clock,cat,0.20,7143_nse_dnn_0.20_cat_10_n02123394_4698.JPEG
cornet-s,6,744,NaN,elephant,cat,0.20,7144_nse_dnn_0.20_cat_10_n02124075_14705.JPEG
cornet-s,6,745,NaN,chair,cat,0.20,7145_nse_dnn_0.20_cat_10_n02124075_7914.JPEG
cornet-s,6,746,NaN,boat,cat,0.20,7146_nse_dnn_0.20_cat_10_n02125311_13383.JPEG
cornet-s,6,747,NaN,clock,cat,0.20,7147_nse_dnn_0.20_cat_10_n02125311_13919.JPEG
cornet-s,6,748,NaN,cat,cat,0.20,7148_nse_dnn_0.20_cat_10_n02123045_3884.JPEG
cornet-s,6,749,NaN,chair,cat,0.20,7149_nse_dnn_0.20_cat_10_n02123597_6962.JPEG
cornet-s,6,750,NaN,chair,cat,0.20,7150_nse_dnn_0.20_cat_10_n02123159_5406.JPEG
cornet-s,6,751,NaN,bottle,bottle,0.20,7151_nse_dnn_0.20_bottle_10_n02823428_9326.JPEG
cornet-s,6,752,NaN,clock,bottle,0.20,7152_nse_dnn_0.20_bottle_10_n04579145_2313.JPEG
cornet-s,6,753,NaN,bear,bottle,0.20,7153_nse_dnn_0.20_bottle_10_n03983396_5452.JPEG
cornet-s,6,754,NaN,knife,bottle,0.20,7154_nse_dnn_0.20_bottle_10_n02823428_1431.JPEG
cornet-s,6,755,NaN,boat,bottle,0.20,7155_nse_dnn_0.20_bottle_10_n04591713_7489.JPEG
cornet-s,6,756,NaN,boat,bottle,0.20,7156_nse_dnn_0.20_bottle_10_n02823428_2489.JPEG
cornet-s,6,757,NaN,bottle,bottle,0.20,7157_nse_dnn_0.20_bottle_10_n04557648_4318.JPEG
cornet-s,6,758,NaN,bottle,bottle,0.20,7158_nse_dnn_0.20_bottle_10_n02823428_4470.JPEG
cornet-s,6,759,NaN,clock,bottle,0.20,7159_nse_dnn_0.20_bottle_10_n02823428_3578.JPEG
cornet-s,6,760,NaN,clock,bottle,0.20,7160_nse_dnn_0.20_bottle_10_n04579145_4909.JPEG
cornet-s,6,761,NaN,chair,truck,0.20,7161_nse_dnn_0.20_truck_10_n03796401_5343.JPEG
cornet-s,6,762,NaN,boat,truck,0.20,7162_nse_dnn_0.20_truck_10_n03417042_2563.JPEG
cornet-s,6,763,NaN,chair,truck,0.20,7163_nse_dnn_0.20_truck_10_n03417042_9946.JPEG
cornet-s,6,764,NaN,chair,truck,0.20,7164_nse_dnn_0.20_truck_10_n03796401_2767.JPEG
cornet-s,6,765,NaN,clock,truck,0.20,7165_nse_dnn_0.20_truck_10_n03796401_6928.JPEG
cornet-s,6,766,NaN,chair,truck,0.20,7166_nse_dnn_0.20_truck_10_n03796401_6966.JPEG
cornet-s,6,767,NaN,chair,truck,0.20,7167_nse_dnn_0.20_truck_10_n04467665_51054.JPEG
cornet-s,6,768,NaN,chair,truck,0.20,7168_nse_dnn_0.20_truck_10_n03417042_12509.JPEG
cornet-s,6,769,NaN,clock,truck,0.20,7169_nse_dnn_0.20_truck_10_n03417042_153.JPEG
cornet-s,6,770,NaN,chair,truck,0.20,7170_nse_dnn_0.20_truck_10_n04467665_68748.JPEG
cornet-s,6,771,NaN,chair,car,0.20,7171_nse_dnn_0.20_car_10_n03100240_4840.JPEG
cornet-s,6,772,NaN,boat,car,0.20,7172_nse_dnn_0.20_car_10_n04285008_13470.JPEG
cornet-s,6,773,NaN,boat,car,0.20,7173_nse_dnn_0.20_car_10_n02814533_90942.JPEG
cornet-s,6,774,NaN,keyboard,car,0.20,7174_nse_dnn_0.20_car_10_n02814533_97133.JPEG
cornet-s,6,775,NaN,boat,car,0.20,7175_nse_dnn_0.20_car_10_n02814533_11155.JPEG
cornet-s,6,776,NaN,chair,car,0.20,7176_nse_dnn_0.20_car_10_n03100240_5716.JPEG
cornet-s,6,777,NaN,knife,car,0.20,7177_nse_dnn_0.20_car_10_n03100240_13929.JPEG
cornet-s,6,778,NaN,chair,car,0.20,7178_nse_dnn_0.20_car_10_n02814533_85659.JPEG
cornet-s,6,779,NaN,bicycle,car,0.20,7179_nse_dnn_0.20_car_10_n03100240_19223.JPEG
cornet-s,6,780,NaN,boat,car,0.20,7180_nse_dnn_0.20_car_10_n04285008_7267.JPEG
cornet-s,6,781,NaN,chair,bird,0.20,7181_nse_dnn_0.20_bird_10_n02027492_10167.JPEG
cornet-s,6,782,NaN,cat,bird,0.20,7182_nse_dnn_0.20_bird_10_n02002556_7229.JPEG
cornet-s,6,783,NaN,chair,bird,0.20,7183_nse_dnn_0.20_bird_10_n01534433_6492.JPEG
cornet-s,6,784,NaN,chair,bird,0.20,7184_nse_dnn_0.20_bird_10_n01798484_617.JPEG
cornet-s,6,785,NaN,bear,bird,0.20,7185_nse_dnn_0.20_bird_10_n01829413_641.JPEG
cornet-s,6,786,NaN,chair,bird,0.20,7186_nse_dnn_0.20_bird_10_n02027492_9725.JPEG
cornet-s,6,787,NaN,clock,bird,0.20,7187_nse_dnn_0.20_bird_10_n01614925_53057.JPEG
cornet-s,6,788,NaN,chair,bird,0.20,7188_nse_dnn_0.20_bird_10_n01601694_154.JPEG
cornet-s,6,789,NaN,clock,bird,0.20,7189_nse_dnn_0.20_bird_10_n01829413_2345.JPEG
cornet-s,6,790,NaN,clock,bird,0.20,7190_nse_dnn_0.20_bird_10_n01616318_5761.JPEG
cornet-s,6,791,NaN,chair,dog,0.20,7191_nse_dnn_0.20_dog_10_n02088466_1867.JPEG
cornet-s,6,792,NaN,clock,dog,0.20,7192_nse_dnn_0.20_dog_10_n02113799_4929.JPEG
cornet-s,6,793,NaN,knife,dog,0.20,7193_nse_dnn_0.20_dog_10_n02108000_7179.JPEG
cornet-s,6,794,NaN,cat,dog,0.20,7194_nse_dnn_0.20_dog_10_n02086646_1031.JPEG
cornet-s,6,795,NaN,boat,dog,0.20,7195_nse_dnn_0.20_dog_10_n02099267_19856.JPEG
cornet-s,6,796,NaN,chair,dog,0.20,7196_nse_dnn_0.20_dog_10_n02108422_7338.JPEG
cornet-s,6,797,NaN,chair,dog,0.20,7197_nse_dnn_0.20_dog_10_n02091134_10520.JPEG
cornet-s,6,798,NaN,chair,dog,0.20,7198_nse_dnn_0.20_dog_10_n02090622_3102.JPEG
cornet-s,6,799,NaN,clock,dog,0.20,7199_nse_dnn_0.20_dog_10_n02090721_2291.JPEG
cornet-s,6,800,NaN,chair,dog,0.20,7200_nse_dnn_0.20_dog_10_n02088632_7283.JPEG
cornet-s,6,801,NaN,clock,knife,0.35,7201_nse_dnn_0.35_knife_10_n03041632_43436.JPEG
cornet-s,6,802,NaN,bottle,knife,0.35,7202_nse_dnn_0.35_knife_10_n03041632_42196.JPEG
cornet-s,6,803,NaN,clock,knife,0.35,7203_nse_dnn_0.35_knife_10_n03041632_34505.JPEG
cornet-s,6,804,NaN,bottle,knife,0.35,7204_nse_dnn_0.35_knife_10_n03041632_10140.JPEG
cornet-s,6,805,NaN,bottle,knife,0.35,7205_nse_dnn_0.35_knife_10_n03041632_31632.JPEG
cornet-s,6,806,NaN,bottle,knife,0.35,7206_nse_dnn_0.35_knife_10_n03041632_84869.JPEG
cornet-s,6,807,NaN,clock,knife,0.35,7207_nse_dnn_0.35_knife_10_n03041632_35116.JPEG
cornet-s,6,808,NaN,cat,knife,0.35,7208_nse_dnn_0.35_knife_10_n03041632_19275.JPEG
cornet-s,6,809,NaN,bottle,knife,0.35,7209_nse_dnn_0.35_knife_10_n03041632_99912.JPEG
cornet-s,6,810,NaN,elephant,knife,0.35,7210_nse_dnn_0.35_knife_10_n03041632_45270.JPEG
cornet-s,6,811,NaN,bottle,keyboard,0.35,7211_nse_dnn_0.35_keyboard_10_n04505470_4398.JPEG
cornet-s,6,812,NaN,cat,keyboard,0.35,7212_nse_dnn_0.35_keyboard_10_n03085013_5157.JPEG
cornet-s,6,813,NaN,bottle,keyboard,0.35,7213_nse_dnn_0.35_keyboard_10_n03085013_10035.JPEG
cornet-s,6,814,NaN,clock,keyboard,0.35,7214_nse_dnn_0.35_keyboard_10_n03085013_18746.JPEG
cornet-s,6,815,NaN,chair,keyboard,0.35,7215_nse_dnn_0.35_keyboard_10_n04505470_3717.JPEG
cornet-s,6,816,NaN,knife,keyboard,0.35,7216_nse_dnn_0.35_keyboard_10_n03085013_4673.JPEG
cornet-s,6,817,NaN,clock,keyboard,0.35,7217_nse_dnn_0.35_keyboard_10_n03085013_15125.JPEG
cornet-s,6,818,NaN,knife,keyboard,0.35,7218_nse_dnn_0.35_keyboard_10_n03085013_14237.JPEG
cornet-s,6,819,NaN,bottle,keyboard,0.35,7219_nse_dnn_0.35_keyboard_10_n04505470_3132.JPEG
cornet-s,6,820,NaN,clock,keyboard,0.35,7220_nse_dnn_0.35_keyboard_10_n04505470_4262.JPEG
cornet-s,6,821,NaN,clock,elephant,0.35,7221_nse_dnn_0.35_elephant_10_n02504458_5313.JPEG
cornet-s,6,822,NaN,clock,elephant,0.35,7222_nse_dnn_0.35_elephant_10_n02504458_2949.JPEG
cornet-s,6,823,NaN,clock,elephant,0.35,7223_nse_dnn_0.35_elephant_10_n02504013_2796.JPEG
cornet-s,6,824,NaN,clock,elephant,0.35,7224_nse_dnn_0.35_elephant_10_n02504458_5978.JPEG
cornet-s,6,825,NaN,bottle,elephant,0.35,7225_nse_dnn_0.35_elephant_10_n02504013_6552.JPEG
cornet-s,6,826,NaN,bottle,elephant,0.35,7226_nse_dnn_0.35_elephant_10_n02504013_4846.JPEG
cornet-s,6,827,NaN,bear,elephant,0.35,7227_nse_dnn_0.35_elephant_10_n02504013_6911.JPEG
cornet-s,6,828,NaN,bottle,elephant,0.35,7228_nse_dnn_0.35_elephant_10_n02504458_7762.JPEG
cornet-s,6,829,NaN,bottle,elephant,0.35,7229_nse_dnn_0.35_elephant_10_n02504458_5899.JPEG
cornet-s,6,830,NaN,bottle,elephant,0.35,7230_nse_dnn_0.35_elephant_10_n02504458_1626.JPEG
cornet-s,6,831,NaN,bottle,bicycle,0.35,7231_nse_dnn_0.35_bicycle_10_n03792782_10617.JPEG
cornet-s,6,832,NaN,bottle,bicycle,0.35,7232_nse_dnn_0.35_bicycle_10_n02835271_8531.JPEG
cornet-s,6,833,NaN,bottle,bicycle,0.35,7233_nse_dnn_0.35_bicycle_10_n03792782_19744.JPEG
cornet-s,6,834,NaN,bottle,bicycle,0.35,7234_nse_dnn_0.35_bicycle_10_n03792782_30354.JPEG
cornet-s,6,835,NaN,clock,bicycle,0.35,7235_nse_dnn_0.35_bicycle_10_n02835271_5858.JPEG
cornet-s,6,836,NaN,bottle,bicycle,0.35,7236_nse_dnn_0.35_bicycle_10_n02835271_2608.JPEG
cornet-s,6,837,NaN,bottle,bicycle,0.35,7237_nse_dnn_0.35_bicycle_10_n02835271_19394.JPEG
cornet-s,6,838,NaN,bottle,bicycle,0.35,7238_nse_dnn_0.35_bicycle_10_n02835271_20959.JPEG
cornet-s,6,839,NaN,bottle,bicycle,0.35,7239_nse_dnn_0.35_bicycle_10_n03792782_4222.JPEG
cornet-s,6,840,NaN,clock,bicycle,0.35,7240_nse_dnn_0.35_bicycle_10_n03792782_9563.JPEG
cornet-s,6,841,NaN,bottle,airplane,0.35,7241_nse_dnn_0.35_airplane_10_n02690373_8967.JPEG
cornet-s,6,842,NaN,clock,airplane,0.35,7242_nse_dnn_0.35_airplane_10_n02690373_9662.JPEG
cornet-s,6,843,NaN,clock,airplane,0.35,7243_nse_dnn_0.35_airplane_10_n02690373_1611.JPEG
cornet-s,6,844,NaN,clock,airplane,0.35,7244_nse_dnn_0.35_airplane_10_n02690373_4818.JPEG
cornet-s,6,845,NaN,clock,airplane,0.35,7245_nse_dnn_0.35_airplane_10_n02690373_7279.JPEG
cornet-s,6,846,NaN,bottle,airplane,0.35,7246_nse_dnn_0.35_airplane_10_n02690373_1732.JPEG
cornet-s,6,847,NaN,clock,airplane,0.35,7247_nse_dnn_0.35_airplane_10_n02690373_9848.JPEG
cornet-s,6,848,NaN,bottle,airplane,0.35,7248_nse_dnn_0.35_airplane_10_n02690373_1592.JPEG
cornet-s,6,849,NaN,clock,airplane,0.35,7249_nse_dnn_0.35_airplane_10_n02690373_18871.JPEG
cornet-s,6,850,NaN,clock,airplane,0.35,7250_nse_dnn_0.35_airplane_10_n02690373_6798.JPEG
cornet-s,6,851,NaN,clock,clock,0.35,7251_nse_dnn_0.35_clock_10_n03196217_108.JPEG
cornet-s,6,852,NaN,bottle,clock,0.35,7252_nse_dnn_0.35_clock_10_n02708093_563.JPEG
cornet-s,6,853,NaN,bottle,clock,0.35,7253_nse_dnn_0.35_clock_10_n02708093_725.JPEG
cornet-s,6,854,NaN,clock,clock,0.35,7254_nse_dnn_0.35_clock_10_n04548280_5038.JPEG
cornet-s,6,855,NaN,clock,clock,0.35,7255_nse_dnn_0.35_clock_10_n04548280_8591.JPEG
cornet-s,6,856,NaN,clock,clock,0.35,7256_nse_dnn_0.35_clock_10_n02708093_3266.JPEG
cornet-s,6,857,NaN,clock,clock,0.35,7257_nse_dnn_0.35_clock_10_n04548280_1630.JPEG
cornet-s,6,858,NaN,clock,clock,0.35,7258_nse_dnn_0.35_clock_10_n03196217_3730.JPEG
cornet-s,6,859,NaN,clock,clock,0.35,7259_nse_dnn_0.35_clock_10_n03196217_2978.JPEG
cornet-s,6,860,NaN,clock,clock,0.35,7260_nse_dnn_0.35_clock_10_n02708093_2857.JPEG
cornet-s,6,861,NaN,clock,oven,0.35,7261_nse_dnn_0.35_oven_10_n04111531_11749.JPEG
cornet-s,6,862,NaN,bottle,oven,0.35,7262_nse_dnn_0.35_oven_10_n04111531_136.JPEG
cornet-s,6,863,NaN,bottle,oven,0.35,7263_nse_dnn_0.35_oven_10_n04111531_9026.JPEG
cornet-s,6,864,NaN,bottle,oven,0.35,7264_nse_dnn_0.35_oven_10_n04111531_21208.JPEG
cornet-s,6,865,NaN,bottle,oven,0.35,7265_nse_dnn_0.35_oven_10_n04111531_8036.JPEG
cornet-s,6,866,NaN,bottle,oven,0.35,7266_nse_dnn_0.35_oven_10_n04111531_20407.JPEG
cornet-s,6,867,NaN,bottle,oven,0.35,7267_nse_dnn_0.35_oven_10_n04111531_10640.JPEG
cornet-s,6,868,NaN,bottle,oven,0.35,7268_nse_dnn_0.35_oven_10_n04111531_15735.JPEG
cornet-s,6,869,NaN,clock,oven,0.35,7269_nse_dnn_0.35_oven_10_n04111531_9844.JPEG
cornet-s,6,870,NaN,bottle,oven,0.35,7270_nse_dnn_0.35_oven_10_n04111531_9263.JPEG
cornet-s,6,871,NaN,bottle,chair,0.35,7271_nse_dnn_0.35_chair_10_n02791124_5420.JPEG
cornet-s,6,872,NaN,bottle,chair,0.35,7272_nse_dnn_0.35_chair_10_n04429376_49520.JPEG
cornet-s,6,873,NaN,knife,chair,0.35,7273_nse_dnn_0.35_chair_10_n04099969_8567.JPEG
cornet-s,6,874,NaN,cat,chair,0.35,7274_nse_dnn_0.35_chair_10_n02791124_8604.JPEG
cornet-s,6,875,NaN,elephant,chair,0.35,7275_nse_dnn_0.35_chair_10_n04099969_5456.JPEG
cornet-s,6,876,NaN,elephant,chair,0.35,7276_nse_dnn_0.35_chair_10_n02791124_1566.JPEG
cornet-s,6,877,NaN,clock,chair,0.35,7277_nse_dnn_0.35_chair_10_n02791124_1482.JPEG
cornet-s,6,878,NaN,clock,chair,0.35,7278_nse_dnn_0.35_chair_10_n04099969_3130.JPEG
cornet-s,6,879,NaN,bear,chair,0.35,7279_nse_dnn_0.35_chair_10_n02791124_2611.JPEG
cornet-s,6,880,NaN,clock,chair,0.35,7280_nse_dnn_0.35_chair_10_n02791124_13026.JPEG
cornet-s,6,881,NaN,bottle,bear,0.35,7281_nse_dnn_0.35_bear_10_n02132136_7342.JPEG
cornet-s,6,882,NaN,clock,bear,0.35,7282_nse_dnn_0.35_bear_10_n02133161_4685.JPEG
cornet-s,6,883,NaN,clock,bear,0.35,7283_nse_dnn_0.35_bear_10_n02133161_16198.JPEG
cornet-s,6,884,NaN,clock,bear,0.35,7284_nse_dnn_0.35_bear_10_n02133161_5347.JPEG
cornet-s,6,885,NaN,bottle,bear,0.35,7285_nse_dnn_0.35_bear_10_n02133161_1134.JPEG
cornet-s,6,886,NaN,bottle,bear,0.35,7286_nse_dnn_0.35_bear_10_n02133161_14963.JPEG
cornet-s,6,887,NaN,bottle,bear,0.35,7287_nse_dnn_0.35_bear_10_n02133161_3574.JPEG
cornet-s,6,888,NaN,bottle,bear,0.35,7288_nse_dnn_0.35_bear_10_n02132136_11693.JPEG
cornet-s,6,889,NaN,bottle,bear,0.35,7289_nse_dnn_0.35_bear_10_n02134418_5527.JPEG
cornet-s,6,890,NaN,bottle,bear,0.35,7290_nse_dnn_0.35_bear_10_n02134084_3723.JPEG
cornet-s,6,891,NaN,bottle,boat,0.35,7291_nse_dnn_0.35_boat_10_n03662601_5878.JPEG
cornet-s,6,892,NaN,bottle,boat,0.35,7292_nse_dnn_0.35_boat_10_n04612504_79.JPEG
cornet-s,6,893,NaN,clock,boat,0.35,7293_nse_dnn_0.35_boat_10_n04612504_10614.JPEG
cornet-s,6,894,NaN,clock,boat,0.35,7294_nse_dnn_0.35_boat_10_n04612504_358.JPEG
cornet-s,6,895,NaN,clock,boat,0.35,7295_nse_dnn_0.35_boat_10_n03344393_10013.JPEG
cornet-s,6,896,NaN,bottle,boat,0.35,7296_nse_dnn_0.35_boat_10_n03662601_8171.JPEG
cornet-s,6,897,NaN,bottle,boat,0.35,7297_nse_dnn_0.35_boat_10_n02951358_30060.JPEG
cornet-s,6,898,NaN,clock,boat,0.35,7298_nse_dnn_0.35_boat_10_n04273569_17297.JPEG
cornet-s,6,899,NaN,clock,boat,0.35,7299_nse_dnn_0.35_boat_10_n03344393_3626.JPEG
cornet-s,6,900,NaN,bottle,boat,0.35,7300_nse_dnn_0.35_boat_10_n04273569_11940.JPEG
cornet-s,6,901,NaN,bottle,cat,0.35,7301_nse_dnn_0.35_cat_10_n02124075_4054.JPEG
cornet-s,6,902,NaN,clock,cat,0.35,7302_nse_dnn_0.35_cat_10_n02123159_808.JPEG
cornet-s,6,903,NaN,clock,cat,0.35,7303_nse_dnn_0.35_cat_10_n02123045_12713.JPEG
cornet-s,6,904,NaN,bottle,cat,0.35,7304_nse_dnn_0.35_cat_10_n02125311_47140.JPEG
cornet-s,6,905,NaN,cat,cat,0.35,7305_nse_dnn_0.35_cat_10_n02123597_11613.JPEG
cornet-s,6,906,NaN,clock,cat,0.35,7306_nse_dnn_0.35_cat_10_n02123159_4595.JPEG
cornet-s,6,907,NaN,bottle,cat,0.35,7307_nse_dnn_0.35_cat_10_n02125311_2285.JPEG
cornet-s,6,908,NaN,clock,cat,0.35,7308_nse_dnn_0.35_cat_10_n02123394_513.JPEG
cornet-s,6,909,NaN,bottle,cat,0.35,7309_nse_dnn_0.35_cat_10_n02123159_5367.JPEG
cornet-s,6,910,NaN,clock,cat,0.35,7310_nse_dnn_0.35_cat_10_n02123597_13713.JPEG
cornet-s,6,911,NaN,bottle,bottle,0.35,7311_nse_dnn_0.35_bottle_10_n03983396_18753.JPEG
cornet-s,6,912,NaN,bottle,bottle,0.35,7312_nse_dnn_0.35_bottle_10_n04591713_7361.JPEG
cornet-s,6,913,NaN,bottle,bottle,0.35,7313_nse_dnn_0.35_bottle_10_n04591713_65.JPEG
cornet-s,6,914,NaN,clock,bottle,0.35,7314_nse_dnn_0.35_bottle_10_n04557648_11812.JPEG
cornet-s,6,915,NaN,bottle,bottle,0.35,7315_nse_dnn_0.35_bottle_10_n04560804_13216.JPEG
cornet-s,6,916,NaN,clock,bottle,0.35,7316_nse_dnn_0.35_bottle_10_n04557648_5806.JPEG
cornet-s,6,917,NaN,bottle,bottle,0.35,7317_nse_dnn_0.35_bottle_10_n04591713_3302.JPEG
cornet-s,6,918,NaN,clock,bottle,0.35,7318_nse_dnn_0.35_bottle_10_n04560804_153.JPEG
cornet-s,6,919,NaN,bottle,bottle,0.35,7319_nse_dnn_0.35_bottle_10_n03937543_1143.JPEG
cornet-s,6,920,NaN,bottle,bottle,0.35,7320_nse_dnn_0.35_bottle_10_n03937543_3276.JPEG
cornet-s,6,921,NaN,chair,truck,0.35,7321_nse_dnn_0.35_truck_10_n04467665_1584.JPEG
cornet-s,6,922,NaN,bottle,truck,0.35,7322_nse_dnn_0.35_truck_10_n03417042_18253.JPEG
cornet-s,6,923,NaN,bottle,truck,0.35,7323_nse_dnn_0.35_truck_10_n03796401_11473.JPEG
cornet-s,6,924,NaN,clock,truck,0.35,7324_nse_dnn_0.35_truck_10_n03796401_6681.JPEG
cornet-s,6,925,NaN,bottle,truck,0.35,7325_nse_dnn_0.35_truck_10_n04467665_16045.JPEG
cornet-s,6,926,NaN,clock,truck,0.35,7326_nse_dnn_0.35_truck_10_n03417042_1841.JPEG
cornet-s,6,927,NaN,elephant,truck,0.35,7327_nse_dnn_0.35_truck_10_n04467665_66876.JPEG
cornet-s,6,928,NaN,bottle,truck,0.35,7328_nse_dnn_0.35_truck_10_n03417042_3979.JPEG
cornet-s,6,929,NaN,clock,truck,0.35,7329_nse_dnn_0.35_truck_10_n03417042_29361.JPEG
cornet-s,6,930,NaN,bottle,truck,0.35,7330_nse_dnn_0.35_truck_10_n03417042_4774.JPEG
cornet-s,6,931,NaN,bottle,car,0.35,7331_nse_dnn_0.35_car_10_n04285008_12070.JPEG
cornet-s,6,932,NaN,bottle,car,0.35,7332_nse_dnn_0.35_car_10_n03100240_9610.JPEG
cornet-s,6,933,NaN,clock,car,0.35,7333_nse_dnn_0.35_car_10_n02814533_96168.JPEG
cornet-s,6,934,NaN,clock,car,0.35,7334_nse_dnn_0.35_car_10_n04285008_11893.JPEG
cornet-s,6,935,NaN,bottle,car,0.35,7335_nse_dnn_0.35_car_10_n04285008_8017.JPEG
cornet-s,6,936,NaN,clock,car,0.35,7336_nse_dnn_0.35_car_10_n02814533_51701.JPEG
cornet-s,6,937,NaN,bottle,car,0.35,7337_nse_dnn_0.35_car_10_n04285008_15604.JPEG
cornet-s,6,938,NaN,chair,car,0.35,7338_nse_dnn_0.35_car_10_n04285008_5876.JPEG
cornet-s,6,939,NaN,clock,car,0.35,7339_nse_dnn_0.35_car_10_n04285008_5420.JPEG
cornet-s,6,940,NaN,chair,car,0.35,7340_nse_dnn_0.35_car_10_n02814533_1884.JPEG
cornet-s,6,941,NaN,bottle,bird,0.35,7341_nse_dnn_0.35_bird_10_n01537544_6972.JPEG
cornet-s,6,942,NaN,bottle,bird,0.35,7342_nse_dnn_0.35_bird_10_n02018207_12166.JPEG
cornet-s,6,943,NaN,clock,bird,0.35,7343_nse_dnn_0.35_bird_10_n01829413_3865.JPEG
cornet-s,6,944,NaN,clock,bird,0.35,7344_nse_dnn_0.35_bird_10_n01796340_4815.JPEG
cornet-s,6,945,NaN,clock,bird,0.35,7345_nse_dnn_0.35_bird_10_n01614925_11482.JPEG
cornet-s,6,946,NaN,clock,bird,0.35,7346_nse_dnn_0.35_bird_10_n01534433_5527.JPEG
cornet-s,6,947,NaN,clock,bird,0.35,7347_nse_dnn_0.35_bird_10_n01820546_2277.JPEG
cornet-s,6,948,NaN,bottle,bird,0.35,7348_nse_dnn_0.35_bird_10_n02033041_9237.JPEG
cornet-s,6,949,NaN,clock,bird,0.35,7349_nse_dnn_0.35_bird_10_n01829413_6949.JPEG
cornet-s,6,950,NaN,bottle,bird,0.35,7350_nse_dnn_0.35_bird_10_n01855672_4226.JPEG
cornet-s,6,951,NaN,bottle,dog,0.35,7351_nse_dnn_0.35_dog_10_n02088364_12821.JPEG
cornet-s,6,952,NaN,bottle,dog,0.35,7352_nse_dnn_0.35_dog_10_n02107574_5563.JPEG
cornet-s,6,953,NaN,clock,dog,0.35,7353_nse_dnn_0.35_dog_10_n02105162_4299.JPEG
cornet-s,6,954,NaN,bottle,dog,0.35,7354_nse_dnn_0.35_dog_10_n02102177_3976.JPEG
cornet-s,6,955,NaN,clock,dog,0.35,7355_nse_dnn_0.35_dog_10_n02113624_2930.JPEG
cornet-s,6,956,NaN,bottle,dog,0.35,7356_nse_dnn_0.35_dog_10_n02107142_6060.JPEG
cornet-s,6,957,NaN,clock,dog,0.35,7357_nse_dnn_0.35_dog_10_n02086079_9204.JPEG
cornet-s,6,958,NaN,clock,dog,0.35,7358_nse_dnn_0.35_dog_10_n02091032_1210.JPEG
cornet-s,6,959,NaN,bottle,dog,0.35,7359_nse_dnn_0.35_dog_10_n02097209_1011.JPEG
cornet-s,6,960,NaN,clock,dog,0.35,7360_nse_dnn_0.35_dog_10_n02093859_2463.JPEG
cornet-s,6,961,NaN,clock,knife,0.60,7361_nse_dnn_0.60_knife_10_n03041632_24798.JPEG
cornet-s,6,962,NaN,clock,knife,0.60,7362_nse_dnn_0.60_knife_10_n03041632_42472.JPEG
cornet-s,6,963,NaN,clock,knife,0.60,7363_nse_dnn_0.60_knife_10_n03041632_56454.JPEG
cornet-s,6,964,NaN,clock,knife,0.60,7364_nse_dnn_0.60_knife_10_n03041632_81943.JPEG
cornet-s,6,965,NaN,clock,knife,0.60,7365_nse_dnn_0.60_knife_10_n03041632_11326.JPEG
cornet-s,6,966,NaN,clock,knife,0.60,7366_nse_dnn_0.60_knife_10_n03041632_30573.JPEG
cornet-s,6,967,NaN,clock,knife,0.60,7367_nse_dnn_0.60_knife_10_n03041632_43289.JPEG
cornet-s,6,968,NaN,clock,knife,0.60,7368_nse_dnn_0.60_knife_10_n03041632_46103.JPEG
cornet-s,6,969,NaN,bottle,knife,0.60,7369_nse_dnn_0.60_knife_10_n03041632_9157.JPEG
cornet-s,6,970,NaN,clock,knife,0.60,7370_nse_dnn_0.60_knife_10_n03041632_92063.JPEG
cornet-s,6,971,NaN,clock,keyboard,0.60,7371_nse_dnn_0.60_keyboard_10_n03085013_23649.JPEG
cornet-s,6,972,NaN,clock,keyboard,0.60,7372_nse_dnn_0.60_keyboard_10_n04505470_1440.JPEG
cornet-s,6,973,NaN,bottle,keyboard,0.60,7373_nse_dnn_0.60_keyboard_10_n04505470_961.JPEG
cornet-s,6,974,NaN,clock,keyboard,0.60,7374_nse_dnn_0.60_keyboard_10_n03085013_20303.JPEG
cornet-s,6,975,NaN,clock,keyboard,0.60,7375_nse_dnn_0.60_keyboard_10_n03085013_24223.JPEG
cornet-s,6,976,NaN,clock,keyboard,0.60,7376_nse_dnn_0.60_keyboard_10_n03085013_15295.JPEG
cornet-s,6,977,NaN,clock,keyboard,0.60,7377_nse_dnn_0.60_keyboard_10_n03085013_19374.JPEG
cornet-s,6,978,NaN,clock,keyboard,0.60,7378_nse_dnn_0.60_keyboard_10_n04505470_1914.JPEG
cornet-s,6,979,NaN,clock,keyboard,0.60,7379_nse_dnn_0.60_keyboard_10_n03085013_3318.JPEG
cornet-s,6,980,NaN,clock,keyboard,0.60,7380_nse_dnn_0.60_keyboard_10_n03085013_1312.JPEG
cornet-s,6,981,NaN,clock,elephant,0.60,7381_nse_dnn_0.60_elephant_10_n02504013_7422.JPEG
cornet-s,6,982,NaN,bottle,elephant,0.60,7382_nse_dnn_0.60_elephant_10_n02504013_6387.JPEG
cornet-s,6,983,NaN,bottle,elephant,0.60,7383_nse_dnn_0.60_elephant_10_n02504458_4071.JPEG
cornet-s,6,984,NaN,clock,elephant,0.60,7384_nse_dnn_0.60_elephant_10_n02504458_1903.JPEG
cornet-s,6,985,NaN,bottle,elephant,0.60,7385_nse_dnn_0.60_elephant_10_n02504458_5875.JPEG
cornet-s,6,986,NaN,clock,elephant,0.60,7386_nse_dnn_0.60_elephant_10_n02504458_2442.JPEG
cornet-s,6,987,NaN,clock,elephant,0.60,7387_nse_dnn_0.60_elephant_10_n02504013_4159.JPEG
cornet-s,6,988,NaN,clock,elephant,0.60,7388_nse_dnn_0.60_elephant_10_n02504458_2799.JPEG
cornet-s,6,989,NaN,clock,elephant,0.60,7389_nse_dnn_0.60_elephant_10_n02504013_1349.JPEG
cornet-s,6,990,NaN,clock,elephant,0.60,7390_nse_dnn_0.60_elephant_10_n02504458_460.JPEG
cornet-s,6,991,NaN,clock,bicycle,0.60,7391_nse_dnn_0.60_bicycle_10_n02835271_5289.JPEG
cornet-s,6,992,NaN,bottle,bicycle,0.60,7392_nse_dnn_0.60_bicycle_10_n03792782_7721.JPEG
cornet-s,6,993,NaN,clock,bicycle,0.60,7393_nse_dnn_0.60_bicycle_10_n03792782_52010.JPEG
cornet-s,6,994,NaN,bottle,bicycle,0.60,7394_nse_dnn_0.60_bicycle_10_n03792782_4502.JPEG
cornet-s,6,995,NaN,clock,bicycle,0.60,7395_nse_dnn_0.60_bicycle_10_n02835271_18887.JPEG
cornet-s,6,996,NaN,bottle,bicycle,0.60,7396_nse_dnn_0.60_bicycle_10_n02835271_20761.JPEG
cornet-s,6,997,NaN,bottle,bicycle,0.60,7397_nse_dnn_0.60_bicycle_10_n03792782_76556.JPEG
cornet-s,6,998,NaN,bottle,bicycle,0.60,7398_nse_dnn_0.60_bicycle_10_n02835271_12782.JPEG
cornet-s,6,999,NaN,clock,bicycle,0.60,7399_nse_dnn_0.60_bicycle_10_n02835271_22263.JPEG
cornet-s,6,1000,NaN,clock,bicycle,0.60,7400_nse_dnn_0.60_bicycle_10_n02835271_8238.JPEG
cornet-s,6,1001,NaN,clock,airplane,0.60,7401_nse_dnn_0.60_airplane_10_n02690373_1071.JPEG
cornet-s,6,1002,NaN,clock,airplane,0.60,7402_nse_dnn_0.60_airplane_10_n02690373_5415.JPEG
cornet-s,6,1003,NaN,clock,airplane,0.60,7403_nse_dnn_0.60_airplane_10_n02690373_4213.JPEG
cornet-s,6,1004,NaN,clock,airplane,0.60,7404_nse_dnn_0.60_airplane_10_n02690373_17722.JPEG
cornet-s,6,1005,NaN,clock,airplane,0.60,7405_nse_dnn_0.60_airplane_10_n02690373_3216.JPEG
cornet-s,6,1006,NaN,clock,airplane,0.60,7406_nse_dnn_0.60_airplane_10_n02690373_170.JPEG
cornet-s,6,1007,NaN,bottle,airplane,0.60,7407_nse_dnn_0.60_airplane_10_n02690373_3728.JPEG
cornet-s,6,1008,NaN,clock,airplane,0.60,7408_nse_dnn_0.60_airplane_10_n02690373_13609.JPEG
cornet-s,6,1009,NaN,clock,airplane,0.60,7409_nse_dnn_0.60_airplane_10_n02690373_6831.JPEG
cornet-s,6,1010,NaN,clock,airplane,0.60,7410_nse_dnn_0.60_airplane_10_n02690373_5130.JPEG
cornet-s,6,1011,NaN,clock,clock,0.60,7411_nse_dnn_0.60_clock_10_n02708093_742.JPEG
cornet-s,6,1012,NaN,clock,clock,0.60,7412_nse_dnn_0.60_clock_10_n04548280_3412.JPEG
cornet-s,6,1013,NaN,clock,clock,0.60,7413_nse_dnn_0.60_clock_10_n03196217_6707.JPEG
cornet-s,6,1014,NaN,clock,clock,0.60,7414_nse_dnn_0.60_clock_10_n02708093_993.JPEG
cornet-s,6,1015,NaN,clock,clock,0.60,7415_nse_dnn_0.60_clock_10_n04548280_499.JPEG
cornet-s,6,1016,NaN,clock,clock,0.60,7416_nse_dnn_0.60_clock_10_n04548280_5221.JPEG
cornet-s,6,1017,NaN,clock,clock,0.60,7417_nse_dnn_0.60_clock_10_n03196217_2201.JPEG
cornet-s,6,1018,NaN,bottle,clock,0.60,7418_nse_dnn_0.60_clock_10_n04548280_189.JPEG
cornet-s,6,1019,NaN,bottle,clock,0.60,7419_nse_dnn_0.60_clock_10_n04548280_1324.JPEG
cornet-s,6,1020,NaN,clock,clock,0.60,7420_nse_dnn_0.60_clock_10_n03196217_6375.JPEG
cornet-s,6,1021,NaN,clock,oven,0.60,7421_nse_dnn_0.60_oven_10_n04111531_1229.JPEG
cornet-s,6,1022,NaN,clock,oven,0.60,7422_nse_dnn_0.60_oven_10_n04111531_986.JPEG
cornet-s,6,1023,NaN,bottle,oven,0.60,7423_nse_dnn_0.60_oven_10_n04111531_10664.JPEG
cornet-s,6,1024,NaN,bottle,oven,0.60,7424_nse_dnn_0.60_oven_10_n04111531_2922.JPEG
cornet-s,6,1025,NaN,clock,oven,0.60,7425_nse_dnn_0.60_oven_10_n04111531_6695.JPEG
cornet-s,6,1026,NaN,clock,oven,0.60,7426_nse_dnn_0.60_oven_10_n04111531_16696.JPEG
cornet-s,6,1027,NaN,bottle,oven,0.60,7427_nse_dnn_0.60_oven_10_n04111531_4685.JPEG
cornet-s,6,1028,NaN,clock,oven,0.60,7428_nse_dnn_0.60_oven_10_n04111531_1439.JPEG
cornet-s,6,1029,NaN,clock,oven,0.60,7429_nse_dnn_0.60_oven_10_n04111531_17576.JPEG
cornet-s,6,1030,NaN,bottle,oven,0.60,7430_nse_dnn_0.60_oven_10_n04111531_13296.JPEG
cornet-s,6,1031,NaN,clock,chair,0.60,7431_nse_dnn_0.60_chair_10_n04099969_13056.JPEG
cornet-s,6,1032,NaN,clock,chair,0.60,7432_nse_dnn_0.60_chair_10_n03376595_6115.JPEG
cornet-s,6,1033,NaN,clock,chair,0.60,7433_nse_dnn_0.60_chair_10_n03376595_697.JPEG
cornet-s,6,1034,NaN,bottle,chair,0.60,7434_nse_dnn_0.60_chair_10_n03376595_4217.JPEG
cornet-s,6,1035,NaN,clock,chair,0.60,7435_nse_dnn_0.60_chair_10_n04429376_5742.JPEG
cornet-s,6,1036,NaN,clock,chair,0.60,7436_nse_dnn_0.60_chair_10_n03376595_2898.JPEG
cornet-s,6,1037,NaN,bottle,chair,0.60,7437_nse_dnn_0.60_chair_10_n04099969_8063.JPEG
cornet-s,6,1038,NaN,clock,chair,0.60,7438_nse_dnn_0.60_chair_10_n02791124_3746.JPEG
cornet-s,6,1039,NaN,clock,chair,0.60,7439_nse_dnn_0.60_chair_10_n04099969_8899.JPEG
cornet-s,6,1040,NaN,clock,chair,0.60,7440_nse_dnn_0.60_chair_10_n04099969_5010.JPEG
cornet-s,6,1041,NaN,bottle,bear,0.60,7441_nse_dnn_0.60_bear_10_n02132136_10180.JPEG
cornet-s,6,1042,NaN,clock,bear,0.60,7442_nse_dnn_0.60_bear_10_n02132136_3103.JPEG
cornet-s,6,1043,NaN,bottle,bear,0.60,7443_nse_dnn_0.60_bear_10_n02133161_1506.JPEG
cornet-s,6,1044,NaN,clock,bear,0.60,7444_nse_dnn_0.60_bear_10_n02133161_7939.JPEG
cornet-s,6,1045,NaN,clock,bear,0.60,7445_nse_dnn_0.60_bear_10_n02134084_14505.JPEG
cornet-s,6,1046,NaN,bottle,bear,0.60,7446_nse_dnn_0.60_bear_10_n02134418_3206.JPEG
cornet-s,6,1047,NaN,bottle,bear,0.60,7447_nse_dnn_0.60_bear_10_n02134418_2418.JPEG
cornet-s,6,1048,NaN,bottle,bear,0.60,7448_nse_dnn_0.60_bear_10_n02133161_8684.JPEG
cornet-s,6,1049,NaN,bottle,bear,0.60,7449_nse_dnn_0.60_bear_10_n02134084_10784.JPEG
cornet-s,6,1050,NaN,clock,bear,0.60,7450_nse_dnn_0.60_bear_10_n02134084_7262.JPEG
cornet-s,6,1051,NaN,bottle,boat,0.60,7451_nse_dnn_0.60_boat_10_n03662601_6016.JPEG
cornet-s,6,1052,NaN,clock,boat,0.60,7452_nse_dnn_0.60_boat_10_n02951358_30293.JPEG
cornet-s,6,1053,NaN,clock,boat,0.60,7453_nse_dnn_0.60_boat_10_n04273569_1639.JPEG
cornet-s,6,1054,NaN,clock,boat,0.60,7454_nse_dnn_0.60_boat_10_n03344393_11469.JPEG
cornet-s,6,1055,NaN,clock,boat,0.60,7455_nse_dnn_0.60_boat_10_n04612504_13586.JPEG
cornet-s,6,1056,NaN,clock,boat,0.60,7456_nse_dnn_0.60_boat_10_n04273569_1469.JPEG
cornet-s,6,1057,NaN,clock,boat,0.60,7457_nse_dnn_0.60_boat_10_n03344393_5884.JPEG
cornet-s,6,1058,NaN,clock,boat,0.60,7458_nse_dnn_0.60_boat_10_n04273569_4065.JPEG
cornet-s,6,1059,NaN,bottle,boat,0.60,7459_nse_dnn_0.60_boat_10_n04612504_626.JPEG
cornet-s,6,1060,NaN,clock,boat,0.60,7460_nse_dnn_0.60_boat_10_n04273569_12218.JPEG
cornet-s,6,1061,NaN,clock,cat,0.60,7461_nse_dnn_0.60_cat_10_n02123045_2439.JPEG
cornet-s,6,1062,NaN,bottle,cat,0.60,7462_nse_dnn_0.60_cat_10_n02123597_1589.JPEG
cornet-s,6,1063,NaN,clock,cat,0.60,7463_nse_dnn_0.60_cat_10_n02123045_6627.JPEG
cornet-s,6,1064,NaN,clock,cat,0.60,7464_nse_dnn_0.60_cat_10_n02123394_6938.JPEG
cornet-s,6,1065,NaN,clock,cat,0.60,7465_nse_dnn_0.60_cat_10_n02123159_4248.JPEG
cornet-s,6,1066,NaN,clock,cat,0.60,7466_nse_dnn_0.60_cat_10_n02125311_17440.JPEG
cornet-s,6,1067,NaN,clock,cat,0.60,7467_nse_dnn_0.60_cat_10_n02125311_15847.JPEG
cornet-s,6,1068,NaN,bottle,cat,0.60,7468_nse_dnn_0.60_cat_10_n02123597_9663.JPEG
cornet-s,6,1069,NaN,clock,cat,0.60,7469_nse_dnn_0.60_cat_10_n02123159_7934.JPEG
cornet-s,6,1070,NaN,clock,cat,0.60,7470_nse_dnn_0.60_cat_10_n02123045_8773.JPEG
cornet-s,6,1071,NaN,clock,bottle,0.60,7471_nse_dnn_0.60_bottle_10_n04591713_4892.JPEG
cornet-s,6,1072,NaN,clock,bottle,0.60,7472_nse_dnn_0.60_bottle_10_n04557648_6245.JPEG
cornet-s,6,1073,NaN,bottle,bottle,0.60,7473_nse_dnn_0.60_bottle_10_n04557648_12481.JPEG
cornet-s,6,1074,NaN,clock,bottle,0.60,7474_nse_dnn_0.60_bottle_10_n04560804_19872.JPEG
cornet-s,6,1075,NaN,bottle,bottle,0.60,7475_nse_dnn_0.60_bottle_10_n02823428_3715.JPEG
cornet-s,6,1076,NaN,bottle,bottle,0.60,7476_nse_dnn_0.60_bottle_10_n04557648_2456.JPEG
cornet-s,6,1077,NaN,clock,bottle,0.60,7477_nse_dnn_0.60_bottle_10_n03983396_4250.JPEG
cornet-s,6,1078,NaN,clock,bottle,0.60,7478_nse_dnn_0.60_bottle_10_n03983396_1157.JPEG
cornet-s,6,1079,NaN,clock,bottle,0.60,7479_nse_dnn_0.60_bottle_10_n04591713_6997.JPEG
cornet-s,6,1080,NaN,clock,bottle,0.60,7480_nse_dnn_0.60_bottle_10_n03937543_11959.JPEG
cornet-s,6,1081,NaN,bottle,truck,0.60,7481_nse_dnn_0.60_truck_10_n03417042_1978.JPEG
cornet-s,6,1082,NaN,clock,truck,0.60,7482_nse_dnn_0.60_truck_10_n04467665_54791.JPEG
cornet-s,6,1083,NaN,clock,truck,0.60,7483_nse_dnn_0.60_truck_10_n03417042_9668.JPEG
cornet-s,6,1084,NaN,clock,truck,0.60,7484_nse_dnn_0.60_truck_10_n03796401_6684.JPEG
cornet-s,6,1085,NaN,clock,truck,0.60,7485_nse_dnn_0.60_truck_10_n03417042_3141.JPEG
cornet-s,6,1086,NaN,bottle,truck,0.60,7486_nse_dnn_0.60_truck_10_n04467665_48264.JPEG
cornet-s,6,1087,NaN,clock,truck,0.60,7487_nse_dnn_0.60_truck_10_n04467665_4899.JPEG
cornet-s,6,1088,NaN,clock,truck,0.60,7488_nse_dnn_0.60_truck_10_n03417042_5225.JPEG
cornet-s,6,1089,NaN,clock,truck,0.60,7489_nse_dnn_0.60_truck_10_n03796401_4211.JPEG
cornet-s,6,1090,NaN,bottle,truck,0.60,7490_nse_dnn_0.60_truck_10_n04467665_2797.JPEG
cornet-s,6,1091,NaN,clock,car,0.60,7491_nse_dnn_0.60_car_10_n02814533_35335.JPEG
cornet-s,6,1092,NaN,bottle,car,0.60,7492_nse_dnn_0.60_car_10_n03100240_7278.JPEG
cornet-s,6,1093,NaN,clock,car,0.60,7493_nse_dnn_0.60_car_10_n03100240_18815.JPEG
cornet-s,6,1094,NaN,clock,car,0.60,7494_nse_dnn_0.60_car_10_n02814533_32693.JPEG
cornet-s,6,1095,NaN,bottle,car,0.60,7495_nse_dnn_0.60_car_10_n03100240_21569.JPEG
cornet-s,6,1096,NaN,clock,car,0.60,7496_nse_dnn_0.60_car_10_n02814533_76543.JPEG
cornet-s,6,1097,NaN,clock,car,0.60,7497_nse_dnn_0.60_car_10_n04285008_1716.JPEG
cornet-s,6,1098,NaN,clock,car,0.60,7498_nse_dnn_0.60_car_10_n02814533_29367.JPEG
cornet-s,6,1099,NaN,clock,car,0.60,7499_nse_dnn_0.60_car_10_n04285008_4026.JPEG
cornet-s,6,1100,NaN,clock,car,0.60,7500_nse_dnn_0.60_car_10_n03100240_1275.JPEG
cornet-s,6,1101,NaN,clock,bird,0.60,7501_nse_dnn_0.60_bird_10_n01616318_5818.JPEG
cornet-s,6,1102,NaN,clock,bird,0.60,7502_nse_dnn_0.60_bird_10_n02018795_1086.JPEG
cornet-s,6,1103,NaN,clock,bird,0.60,7503_nse_dnn_0.60_bird_10_n01622779_869.JPEG
cornet-s,6,1104,NaN,bottle,bird,0.60,7504_nse_dnn_0.60_bird_10_n02002724_2890.JPEG
cornet-s,6,1105,NaN,bottle,bird,0.60,7505_nse_dnn_0.60_bird_10_n01532829_2433.JPEG
cornet-s,6,1106,NaN,clock,bird,0.60,7506_nse_dnn_0.60_bird_10_n02028035_2160.JPEG
cornet-s,6,1107,NaN,clock,bird,0.60,7507_nse_dnn_0.60_bird_10_n01796340_2755.JPEG
cornet-s,6,1108,NaN,clock,bird,0.60,7508_nse_dnn_0.60_bird_10_n01819313_1572.JPEG
cornet-s,6,1109,NaN,bottle,bird,0.60,7509_nse_dnn_0.60_bird_10_n01829413_5798.JPEG
cornet-s,6,1110,NaN,bottle,bird,0.60,7510_nse_dnn_0.60_bird_10_n02051845_918.JPEG
cornet-s,6,1111,NaN,clock,dog,0.60,7511_nse_dnn_0.60_dog_10_n02105251_2536.JPEG
cornet-s,6,1112,NaN,bottle,dog,0.60,7512_nse_dnn_0.60_dog_10_n02106550_2002.JPEG
cornet-s,6,1113,NaN,clock,dog,0.60,7513_nse_dnn_0.60_dog_10_n02101556_7682.JPEG
cornet-s,6,1114,NaN,clock,dog,0.60,7514_nse_dnn_0.60_dog_10_n02107312_5485.JPEG
cornet-s,6,1115,NaN,clock,dog,0.60,7515_nse_dnn_0.60_dog_10_n02113799_1444.JPEG
cornet-s,6,1116,NaN,clock,dog,0.60,7516_nse_dnn_0.60_dog_10_n02102177_4090.JPEG
cornet-s,6,1117,NaN,bottle,dog,0.60,7517_nse_dnn_0.60_dog_10_n02110806_3638.JPEG
cornet-s,6,1118,NaN,clock,dog,0.60,7518_nse_dnn_0.60_dog_10_n02091467_192.JPEG
cornet-s,6,1119,NaN,bottle,dog,0.60,7519_nse_dnn_0.60_dog_10_n02091635_1319.JPEG
cornet-s,6,1120,NaN,clock,dog,0.60,7520_nse_dnn_0.60_dog_10_n02105056_7023.JPEG
cornet-s,6,1121,NaN,clock,knife,0.90,7521_nse_dnn_0.90_knife_10_n03041632_22964.JPEG
cornet-s,6,1122,NaN,clock,knife,0.90,7522_nse_dnn_0.90_knife_10_n03041632_21472.JPEG
cornet-s,6,1123,NaN,clock,knife,0.90,7523_nse_dnn_0.90_knife_10_n03041632_4494.JPEG
cornet-s,6,1124,NaN,clock,knife,0.90,7524_nse_dnn_0.90_knife_10_n03041632_9488.JPEG
cornet-s,6,1125,NaN,clock,knife,0.90,7525_nse_dnn_0.90_knife_10_n03041632_55083.JPEG
cornet-s,6,1126,NaN,clock,knife,0.90,7526_nse_dnn_0.90_knife_10_n03041632_22570.JPEG
cornet-s,6,1127,NaN,clock,knife,0.90,7527_nse_dnn_0.90_knife_10_n03041632_22330.JPEG
cornet-s,6,1128,NaN,clock,knife,0.90,7528_nse_dnn_0.90_knife_10_n03041632_1964.JPEG
cornet-s,6,1129,NaN,clock,knife,0.90,7529_nse_dnn_0.90_knife_10_n03041632_30801.JPEG
cornet-s,6,1130,NaN,clock,knife,0.90,7530_nse_dnn_0.90_knife_10_n03041632_48816.JPEG
cornet-s,6,1131,NaN,clock,keyboard,0.90,7531_nse_dnn_0.90_keyboard_10_n03085013_23619.JPEG
cornet-s,6,1132,NaN,clock,keyboard,0.90,7532_nse_dnn_0.90_keyboard_10_n03085013_6313.JPEG
cornet-s,6,1133,NaN,clock,keyboard,0.90,7533_nse_dnn_0.90_keyboard_10_n03085013_9066.JPEG
cornet-s,6,1134,NaN,clock,keyboard,0.90,7534_nse_dnn_0.90_keyboard_10_n03085013_24172.JPEG
cornet-s,6,1135,NaN,clock,keyboard,0.90,7535_nse_dnn_0.90_keyboard_10_n03085013_23691.JPEG
cornet-s,6,1136,NaN,clock,keyboard,0.90,7536_nse_dnn_0.90_keyboard_10_n04505470_3286.JPEG
cornet-s,6,1137,NaN,clock,keyboard,0.90,7537_nse_dnn_0.90_keyboard_10_n04505470_10026.JPEG
cornet-s,6,1138,NaN,clock,keyboard,0.90,7538_nse_dnn_0.90_keyboard_10_n03085013_23789.JPEG
cornet-s,6,1139,NaN,clock,keyboard,0.90,7539_nse_dnn_0.90_keyboard_10_n03085013_7797.JPEG
cornet-s,6,1140,NaN,clock,keyboard,0.90,7540_nse_dnn_0.90_keyboard_10_n03085013_20925.JPEG
cornet-s,6,1141,NaN,clock,elephant,0.90,7541_nse_dnn_0.90_elephant_10_n02504013_1644.JPEG
cornet-s,6,1142,NaN,clock,elephant,0.90,7542_nse_dnn_0.90_elephant_10_n02504458_6366.JPEG
cornet-s,6,1143,NaN,clock,elephant,0.90,7543_nse_dnn_0.90_elephant_10_n02504458_7359.JPEG
cornet-s,6,1144,NaN,clock,elephant,0.90,7544_nse_dnn_0.90_elephant_10_n02504458_8158.JPEG
cornet-s,6,1145,NaN,clock,elephant,0.90,7545_nse_dnn_0.90_elephant_10_n02504013_6761.JPEG
cornet-s,6,1146,NaN,clock,elephant,0.90,7546_nse_dnn_0.90_elephant_10_n02504013_4231.JPEG
cornet-s,6,1147,NaN,clock,elephant,0.90,7547_nse_dnn_0.90_elephant_10_n02504458_837.JPEG
cornet-s,6,1148,NaN,clock,elephant,0.90,7548_nse_dnn_0.90_elephant_10_n02504013_18091.JPEG
cornet-s,6,1149,NaN,clock,elephant,0.90,7549_nse_dnn_0.90_elephant_10_n02504013_240.JPEG
cornet-s,6,1150,NaN,clock,elephant,0.90,7550_nse_dnn_0.90_elephant_10_n02504458_6387.JPEG
cornet-s,6,1151,NaN,clock,bicycle,0.90,7551_nse_dnn_0.90_bicycle_10_n02835271_13303.JPEG
cornet-s,6,1152,NaN,clock,bicycle,0.90,7552_nse_dnn_0.90_bicycle_10_n02835271_12006.JPEG
cornet-s,6,1153,NaN,clock,bicycle,0.90,7553_nse_dnn_0.90_bicycle_10_n02835271_942.JPEG
cornet-s,6,1154,NaN,clock,bicycle,0.90,7554_nse_dnn_0.90_bicycle_10_n03792782_16977.JPEG
cornet-s,6,1155,NaN,clock,bicycle,0.90,7555_nse_dnn_0.90_bicycle_10_n02835271_21707.JPEG
cornet-s,6,1156,NaN,clock,bicycle,0.90,7556_nse_dnn_0.90_bicycle_10_n02835271_4313.JPEG
cornet-s,6,1157,NaN,clock,bicycle,0.90,7557_nse_dnn_0.90_bicycle_10_n03792782_51169.JPEG
cornet-s,6,1158,NaN,clock,bicycle,0.90,7558_nse_dnn_0.90_bicycle_10_n03792782_17193.JPEG
cornet-s,6,1159,NaN,clock,bicycle,0.90,7559_nse_dnn_0.90_bicycle_10_n03792782_551.JPEG
cornet-s,6,1160,NaN,clock,bicycle,0.90,7560_nse_dnn_0.90_bicycle_10_n02835271_324.JPEG
cornet-s,6,1161,NaN,clock,airplane,0.90,7561_nse_dnn_0.90_airplane_10_n02690373_9794.JPEG
cornet-s,6,1162,NaN,clock,airplane,0.90,7562_nse_dnn_0.90_airplane_10_n02690373_10079.JPEG
cornet-s,6,1163,NaN,clock,airplane,0.90,7563_nse_dnn_0.90_airplane_10_n02690373_10931.JPEG
cornet-s,6,1164,NaN,clock,airplane,0.90,7564_nse_dnn_0.90_airplane_10_n02690373_1769.JPEG
cornet-s,6,1165,NaN,clock,airplane,0.90,7565_nse_dnn_0.90_airplane_10_n02690373_9300.JPEG
cornet-s,6,1166,NaN,clock,airplane,0.90,7566_nse_dnn_0.90_airplane_10_n02690373_1837.JPEG
cornet-s,6,1167,NaN,clock,airplane,0.90,7567_nse_dnn_0.90_airplane_10_n02690373_2514.JPEG
cornet-s,6,1168,NaN,clock,airplane,0.90,7568_nse_dnn_0.90_airplane_10_n02690373_13318.JPEG
cornet-s,6,1169,NaN,clock,airplane,0.90,7569_nse_dnn_0.90_airplane_10_n02690373_1829.JPEG
cornet-s,6,1170,NaN,clock,airplane,0.90,7570_nse_dnn_0.90_airplane_10_n02690373_7651.JPEG
cornet-s,6,1171,NaN,clock,clock,0.90,7571_nse_dnn_0.90_clock_10_n03196217_2628.JPEG
cornet-s,6,1172,NaN,clock,clock,0.90,7572_nse_dnn_0.90_clock_10_n02708093_92.JPEG
cornet-s,6,1173,NaN,clock,clock,0.90,7573_nse_dnn_0.90_clock_10_n04548280_5087.JPEG
cornet-s,6,1174,NaN,clock,clock,0.90,7574_nse_dnn_0.90_clock_10_n02708093_4040.JPEG
cornet-s,6,1175,NaN,clock,clock,0.90,7575_nse_dnn_0.90_clock_10_n02708093_3114.JPEG
cornet-s,6,1176,NaN,clock,clock,0.90,7576_nse_dnn_0.90_clock_10_n03196217_1172.JPEG
cornet-s,6,1177,NaN,clock,clock,0.90,7577_nse_dnn_0.90_clock_10_n02708093_1380.JPEG
cornet-s,6,1178,NaN,clock,clock,0.90,7578_nse_dnn_0.90_clock_10_n04548280_2946.JPEG
cornet-s,6,1179,NaN,clock,clock,0.90,7579_nse_dnn_0.90_clock_10_n04548280_1590.JPEG
cornet-s,6,1180,NaN,clock,clock,0.90,7580_nse_dnn_0.90_clock_10_n04548280_1105.JPEG
cornet-s,6,1181,NaN,clock,oven,0.90,7581_nse_dnn_0.90_oven_10_n04111531_14280.JPEG
cornet-s,6,1182,NaN,clock,oven,0.90,7582_nse_dnn_0.90_oven_10_n04111531_9474.JPEG
cornet-s,6,1183,NaN,clock,oven,0.90,7583_nse_dnn_0.90_oven_10_n04111531_7050.JPEG
cornet-s,6,1184,NaN,clock,oven,0.90,7584_nse_dnn_0.90_oven_10_n04111531_3348.JPEG
cornet-s,6,1185,NaN,clock,oven,0.90,7585_nse_dnn_0.90_oven_10_n04111531_5241.JPEG
cornet-s,6,1186,NaN,clock,oven,0.90,7586_nse_dnn_0.90_oven_10_n04111531_25647.JPEG
cornet-s,6,1187,NaN,clock,oven,0.90,7587_nse_dnn_0.90_oven_10_n04111531_11026.JPEG
cornet-s,6,1188,NaN,clock,oven,0.90,7588_nse_dnn_0.90_oven_10_n04111531_5429.JPEG
cornet-s,6,1189,NaN,clock,oven,0.90,7589_nse_dnn_0.90_oven_10_n04111531_13456.JPEG
