subj,session,trial,rt,object_response,category,condition,imagename
cornet-s,6,1,NaN,oven,knife,0,5601_ps_dnn_0_knife_10_n03041632_42526.png
cornet-s,6,2,NaN,knife,knife,0,5602_ps_dnn_0_knife_10_n03041632_9671.png
cornet-s,6,3,NaN,knife,knife,0,5603_ps_dnn_0_knife_10_n03041632_100645.png
cornet-s,6,4,NaN,knife,knife,0,5604_ps_dnn_0_knife_10_n03041632_13424.png
cornet-s,6,5,NaN,knife,knife,0,5605_ps_dnn_0_knife_10_n03041632_83826.png
cornet-s,6,6,NaN,knife,knife,0,5606_ps_dnn_0_knife_10_n03041632_29827.png
cornet-s,6,7,NaN,knife,knife,0,5607_ps_dnn_0_knife_10_n03041632_55953.png
cornet-s,6,8,NaN,knife,knife,0,5608_ps_dnn_0_knife_10_n03041632_7680.png
cornet-s,6,9,NaN,knife,knife,0,5609_ps_dnn_0_knife_10_n03041632_30958.png
cornet-s,6,10,NaN,knife,knife,0,5610_ps_dnn_0_knife_10_n03041632_2546.png
cornet-s,6,11,NaN,keyboard,keyboard,0,5611_ps_dnn_0_keyboard_10_n03085013_23552.png
cornet-s,6,12,NaN,keyboard,keyboard,0,5612_ps_dnn_0_keyboard_10_n03085013_18966.png
cornet-s,6,13,NaN,keyboard,keyboard,0,5613_ps_dnn_0_keyboard_10_n03085013_18964.png
cornet-s,6,14,NaN,keyboard,keyboard,0,5614_ps_dnn_0_keyboard_10_n03085013_19536.png
cornet-s,6,15,NaN,keyboard,keyboard,0,5615_ps_dnn_0_keyboard_10_n04505470_5056.png
cornet-s,6,16,NaN,keyboard,keyboard,0,5616_ps_dnn_0_keyboard_10_n03085013_23683.png
cornet-s,6,17,NaN,keyboard,keyboard,0,5617_ps_dnn_0_keyboard_10_n04505470_8512.png
cornet-s,6,18,NaN,keyboard,keyboard,0,5618_ps_dnn_0_keyboard_10_n04505470_8469.png
cornet-s,6,19,NaN,keyboard,keyboard,0,5619_ps_dnn_0_keyboard_10_n03085013_19316.png
cornet-s,6,20,NaN,keyboard,keyboard,0,5620_ps_dnn_0_keyboard_10_n04505470_6876.png
cornet-s,6,21,NaN,elephant,elephant,0,5621_ps_dnn_0_elephant_10_n02504458_259.png
cornet-s,6,22,NaN,elephant,elephant,0,5622_ps_dnn_0_elephant_10_n02504458_12555.png
cornet-s,6,23,NaN,elephant,elephant,0,5623_ps_dnn_0_elephant_10_n02504458_8190.png
cornet-s,6,24,NaN,elephant,elephant,0,5624_ps_dnn_0_elephant_10_n02504013_13422.png
cornet-s,6,25,NaN,elephant,elephant,0,5625_ps_dnn_0_elephant_10_n02504458_7804.png
cornet-s,6,26,NaN,elephant,elephant,0,5626_ps_dnn_0_elephant_10_n02504458_5451.png
cornet-s,6,27,NaN,elephant,elephant,0,5627_ps_dnn_0_elephant_10_n02504458_6563.png
cornet-s,6,28,NaN,elephant,elephant,0,5628_ps_dnn_0_elephant_10_n02504458_1567.png
cornet-s,6,29,NaN,elephant,elephant,0,5629_ps_dnn_0_elephant_10_n02504458_4497.png
cornet-s,6,30,NaN,elephant,elephant,0,5630_ps_dnn_0_elephant_10_n02504013_7753.png
cornet-s,6,31,NaN,bicycle,bicycle,0,5631_ps_dnn_0_bicycle_10_n03792782_10727.png
cornet-s,6,32,NaN,bicycle,bicycle,0,5632_ps_dnn_0_bicycle_10_n03792782_34271.png
cornet-s,6,33,NaN,bicycle,bicycle,0,5633_ps_dnn_0_bicycle_10_n03792782_7568.png
cornet-s,6,34,NaN,bicycle,bicycle,0,5634_ps_dnn_0_bicycle_10_n02835271_17914.png
cornet-s,6,35,NaN,bicycle,bicycle,0,5635_ps_dnn_0_bicycle_10_n02835271_7771.png
cornet-s,6,36,NaN,bicycle,bicycle,0,5636_ps_dnn_0_bicycle_10_n02835271_13649.png
cornet-s,6,37,NaN,bicycle,bicycle,0,5637_ps_dnn_0_bicycle_10_n02835271_5825.png
cornet-s,6,38,NaN,bicycle,bicycle,0,5638_ps_dnn_0_bicycle_10_n02835271_17357.png
cornet-s,6,39,NaN,bicycle,bicycle,0,5639_ps_dnn_0_bicycle_10_n03792782_1712.png
cornet-s,6,40,NaN,bicycle,bicycle,0,5640_ps_dnn_0_bicycle_10_n02835271_1393.png
cornet-s,6,41,NaN,airplane,airplane,0,5641_ps_dnn_0_airplane_10_n02690373_4434.png
cornet-s,6,42,NaN,airplane,airplane,0,5642_ps_dnn_0_airplane_10_n02690373_5221.png
cornet-s,6,43,NaN,airplane,airplane,0,5643_ps_dnn_0_airplane_10_n02690373_4964.png
cornet-s,6,44,NaN,airplane,airplane,0,5644_ps_dnn_0_airplane_10_n02690373_1972.png
cornet-s,6,45,NaN,airplane,airplane,0,5645_ps_dnn_0_airplane_10_n02690373_1912.png
cornet-s,6,46,NaN,car,airplane,0,5646_ps_dnn_0_airplane_10_n02690373_7698.png
cornet-s,6,47,NaN,airplane,airplane,0,5647_ps_dnn_0_airplane_10_n02690373_5015.png
cornet-s,6,48,NaN,airplane,airplane,0,5648_ps_dnn_0_airplane_10_n02690373_6887.png
cornet-s,6,49,NaN,airplane,airplane,0,5649_ps_dnn_0_airplane_10_n02690373_8653.png
cornet-s,6,50,NaN,airplane,airplane,0,5650_ps_dnn_0_airplane_10_n02690373_303.png
cornet-s,6,51,NaN,clock,clock,0,5651_ps_dnn_0_clock_10_n03196217_2507.png
cornet-s,6,52,NaN,truck,clock,0,5652_ps_dnn_0_clock_10_n03196217_1611.png
cornet-s,6,53,NaN,clock,clock,0,5653_ps_dnn_0_clock_10_n04548280_8156.png
cornet-s,6,54,NaN,clock,clock,0,5654_ps_dnn_0_clock_10_n03196217_3600.png
cornet-s,6,55,NaN,clock,clock,0,5655_ps_dnn_0_clock_10_n02708093_1975.png
cornet-s,6,56,NaN,clock,clock,0,5656_ps_dnn_0_clock_10_n04548280_2299.png
cornet-s,6,57,NaN,clock,clock,0,5657_ps_dnn_0_clock_10_n02708093_175.png
cornet-s,6,58,NaN,clock,clock,0,5658_ps_dnn_0_clock_10_n02708093_3604.png
cornet-s,6,59,NaN,clock,clock,0,5659_ps_dnn_0_clock_10_n03196217_3943.png
cornet-s,6,60,NaN,clock,clock,0,5660_ps_dnn_0_clock_10_n03196217_3136.png
cornet-s,6,61,NaN,oven,oven,0,5661_ps_dnn_0_oven_10_n04111531_22388.png
cornet-s,6,62,NaN,oven,oven,0,5662_ps_dnn_0_oven_10_n04111531_1398.png
cornet-s,6,63,NaN,oven,oven,0,5663_ps_dnn_0_oven_10_n04111531_12952.png
cornet-s,6,64,NaN,oven,oven,0,5664_ps_dnn_0_oven_10_n04111531_18223.png
cornet-s,6,65,NaN,oven,oven,0,5665_ps_dnn_0_oven_10_n04111531_14441.png
cornet-s,6,66,NaN,chair,oven,0,5666_ps_dnn_0_oven_10_n04111531_25647.png
cornet-s,6,67,NaN,oven,oven,0,5667_ps_dnn_0_oven_10_n04111531_12885.png
cornet-s,6,68,NaN,oven,oven,0,5668_ps_dnn_0_oven_10_n04111531_13520.png
cornet-s,6,69,NaN,oven,oven,0,5669_ps_dnn_0_oven_10_n04111531_538.png
cornet-s,6,70,NaN,oven,oven,0,5670_ps_dnn_0_oven_10_n04111531_2943.png
cornet-s,6,71,NaN,chair,chair,0,5671_ps_dnn_0_chair_10_n04099969_10953.png
cornet-s,6,72,NaN,chair,chair,0,5672_ps_dnn_0_chair_10_n03376595_3195.png
cornet-s,6,73,NaN,chair,chair,0,5673_ps_dnn_0_chair_10_n04099969_1219.png
cornet-s,6,74,NaN,chair,chair,0,5674_ps_dnn_0_chair_10_n04099969_142.png
cornet-s,6,75,NaN,chair,chair,0,5675_ps_dnn_0_chair_10_n04099969_15880.png
cornet-s,6,76,NaN,chair,chair,0,5676_ps_dnn_0_chair_10_n04099969_4826.png
cornet-s,6,77,NaN,chair,chair,0,5677_ps_dnn_0_chair_10_n04429376_616.png
cornet-s,6,78,NaN,chair,chair,0,5678_ps_dnn_0_chair_10_n04099969_8531.png
cornet-s,6,79,NaN,chair,chair,0,5679_ps_dnn_0_chair_10_n03376595_4332.png
cornet-s,6,80,NaN,chair,chair,0,5680_ps_dnn_0_chair_10_n04099969_5757.png
cornet-s,6,81,NaN,bear,bear,0,5681_ps_dnn_0_bear_10_n02133161_10337.png
cornet-s,6,82,NaN,bear,bear,0,5682_ps_dnn_0_bear_10_n02133161_2189.png
cornet-s,6,83,NaN,bear,bear,0,5683_ps_dnn_0_bear_10_n02132136_10837.png
cornet-s,6,84,NaN,bear,bear,0,5684_ps_dnn_0_bear_10_n02133161_11329.png
cornet-s,6,85,NaN,bear,bear,0,5685_ps_dnn_0_bear_10_n02134084_12355.png
cornet-s,6,86,NaN,bear,bear,0,5686_ps_dnn_0_bear_10_n02134084_19808.png
cornet-s,6,87,NaN,bear,bear,0,5687_ps_dnn_0_bear_10_n02134084_10112.png
cornet-s,6,88,NaN,bear,bear,0,5688_ps_dnn_0_bear_10_n02133161_1571.png
cornet-s,6,89,NaN,bear,bear,0,5689_ps_dnn_0_bear_10_n02134418_2324.png
cornet-s,6,90,NaN,bear,bear,0,5690_ps_dnn_0_bear_10_n02134084_27588.png
cornet-s,6,91,NaN,boat,boat,0,5691_ps_dnn_0_boat_10_n03344393_5417.png
cornet-s,6,92,NaN,boat,boat,0,5692_ps_dnn_0_boat_10_n04612504_9488.png
cornet-s,6,93,NaN,chair,boat,0,5693_ps_dnn_0_boat_10_n02951358_12312.png
cornet-s,6,94,NaN,boat,boat,0,5694_ps_dnn_0_boat_10_n03662601_5527.png
cornet-s,6,95,NaN,boat,boat,0,5695_ps_dnn_0_boat_10_n02951358_30099.png
cornet-s,6,96,NaN,boat,boat,0,5696_ps_dnn_0_boat_10_n03662601_5171.png
cornet-s,6,97,NaN,boat,boat,0,5697_ps_dnn_0_boat_10_n02951358_8840.png
cornet-s,6,98,NaN,boat,boat,0,5698_ps_dnn_0_boat_10_n02951358_2654.png
cornet-s,6,99,NaN,boat,boat,0,5699_ps_dnn_0_boat_10_n04273569_4901.png
cornet-s,6,100,NaN,boat,boat,0,5700_ps_dnn_0_boat_10_n03662601_3476.png
cornet-s,6,101,NaN,cat,cat,0,5701_ps_dnn_0_cat_10_n02123394_1914.png
cornet-s,6,102,NaN,cat,cat,0,5702_ps_dnn_0_cat_10_n02125311_45953.png
cornet-s,6,103,NaN,cat,cat,0,5703_ps_dnn_0_cat_10_n02123394_510.png
cornet-s,6,104,NaN,cat,cat,0,5704_ps_dnn_0_cat_10_n02125311_39958.png
cornet-s,6,105,NaN,cat,cat,0,5705_ps_dnn_0_cat_10_n02125311_36622.png
cornet-s,6,106,NaN,cat,cat,0,5706_ps_dnn_0_cat_10_n02123597_6409.png
cornet-s,6,107,NaN,cat,cat,0,5707_ps_dnn_0_cat_10_n02123597_5282.png
cornet-s,6,108,NaN,cat,cat,0,5708_ps_dnn_0_cat_10_n02123159_3804.png
cornet-s,6,109,NaN,cat,cat,0,5709_ps_dnn_0_cat_10_n02124075_14837.png
cornet-s,6,110,NaN,cat,cat,0,5710_ps_dnn_0_cat_10_n02125311_4312.png
cornet-s,6,111,NaN,bottle,bottle,0,5711_ps_dnn_0_bottle_10_n04560804_1417.png
cornet-s,6,112,NaN,bottle,bottle,0,5712_ps_dnn_0_bottle_10_n04560804_6611.png
cornet-s,6,113,NaN,bottle,bottle,0,5713_ps_dnn_0_bottle_10_n04591713_3603.png
cornet-s,6,114,NaN,bottle,bottle,0,5714_ps_dnn_0_bottle_10_n04560804_2155.png
cornet-s,6,115,NaN,bottle,bottle,0,5715_ps_dnn_0_bottle_10_n02823428_11498.png
cornet-s,6,116,NaN,bottle,bottle,0,5716_ps_dnn_0_bottle_10_n04579145_4597.png
cornet-s,6,117,NaN,bottle,bottle,0,5717_ps_dnn_0_bottle_10_n03983396_3572.png
cornet-s,6,118,NaN,bottle,bottle,0,5718_ps_dnn_0_bottle_10_n03937543_339.png
cornet-s,6,119,NaN,bottle,bottle,0,5719_ps_dnn_0_bottle_10_n03983396_18540.png
cornet-s,6,120,NaN,bottle,bottle,0,5720_ps_dnn_0_bottle_10_n03983396_12108.png
cornet-s,6,121,NaN,truck,truck,0,5721_ps_dnn_0_truck_10_n03796401_10070.png
cornet-s,6,122,NaN,truck,truck,0,5722_ps_dnn_0_truck_10_n03417042_11435.png
cornet-s,6,123,NaN,truck,truck,0,5723_ps_dnn_0_truck_10_n03796401_1326.png
cornet-s,6,124,NaN,truck,truck,0,5724_ps_dnn_0_truck_10_n04467665_31621.png
cornet-s,6,125,NaN,truck,truck,0,5725_ps_dnn_0_truck_10_n04467665_3193.png
cornet-s,6,126,NaN,truck,truck,0,5726_ps_dnn_0_truck_10_n03417042_18124.png
cornet-s,6,127,NaN,truck,truck,0,5727_ps_dnn_0_truck_10_n04467665_57786.png
cornet-s,6,128,NaN,truck,truck,0,5728_ps_dnn_0_truck_10_n04467665_27899.png
cornet-s,6,129,NaN,truck,truck,0,5729_ps_dnn_0_truck_10_n03417042_5648.png
cornet-s,6,130,NaN,truck,truck,0,5730_ps_dnn_0_truck_10_n03417042_12988.png
cornet-s,6,131,NaN,car,car,0,5731_ps_dnn_0_car_10_n04285008_6439.png
cornet-s,6,132,NaN,car,car,0,5732_ps_dnn_0_car_10_n02814533_3831.png
cornet-s,6,133,NaN,car,car,0,5733_ps_dnn_0_car_10_n02814533_65256.png
cornet-s,6,134,NaN,car,car,0,5734_ps_dnn_0_car_10_n02814533_24730.png
cornet-s,6,135,NaN,car,car,0,5735_ps_dnn_0_car_10_n02814533_19025.png
cornet-s,6,136,NaN,car,car,0,5736_ps_dnn_0_car_10_n02814533_18068.png
cornet-s,6,137,NaN,car,car,0,5737_ps_dnn_0_car_10_n02814533_33205.png
cornet-s,6,138,NaN,car,car,0,5738_ps_dnn_0_car_10_n03100240_12925.png
cornet-s,6,139,NaN,car,car,0,5739_ps_dnn_0_car_10_n02814533_53757.png
cornet-s,6,140,NaN,car,car,0,5740_ps_dnn_0_car_10_n03100240_9387.png
cornet-s,6,141,NaN,bottle,bird,0,5741_ps_dnn_0_bird_10_n01833805_6475.png
cornet-s,6,142,NaN,elephant,bird,0,5742_ps_dnn_0_bird_10_n01532829_11111.png
cornet-s,6,143,NaN,bird,bird,0,5743_ps_dnn_0_bird_10_n01601694_73.png
cornet-s,6,144,NaN,bird,bird,0,5744_ps_dnn_0_bird_10_n01795545_4094.png
cornet-s,6,145,NaN,bird,bird,0,5745_ps_dnn_0_bird_10_n02013706_12016.png
cornet-s,6,146,NaN,bird,bird,0,5746_ps_dnn_0_bird_10_n02009229_2418.png
cornet-s,6,147,NaN,bird,bird,0,5747_ps_dnn_0_bird_10_n01592084_1573.png
cornet-s,6,148,NaN,bird,bird,0,5748_ps_dnn_0_bird_10_n01592084_1344.png
cornet-s,6,149,NaN,bird,bird,0,5749_ps_dnn_0_bird_10_n02009912_18128.png
cornet-s,6,150,NaN,bird,bird,0,5750_ps_dnn_0_bird_10_n02013706_669.png
cornet-s,6,151,NaN,dog,dog,0,5751_ps_dnn_0_dog_10_n02093991_8214.png
cornet-s,6,152,NaN,bird,dog,0,5752_ps_dnn_0_dog_10_n02107312_7694.png
cornet-s,6,153,NaN,dog,dog,0,5753_ps_dnn_0_dog_10_n02097047_1329.png
cornet-s,6,154,NaN,dog,dog,0,5754_ps_dnn_0_dog_10_n02099267_19547.png
cornet-s,6,155,NaN,dog,dog,0,5755_ps_dnn_0_dog_10_n02106030_16680.png
cornet-s,6,156,NaN,cat,dog,0,5756_ps_dnn_0_dog_10_n02110063_14020.png
cornet-s,6,157,NaN,dog,dog,0,5757_ps_dnn_0_dog_10_n02110806_5565.png
cornet-s,6,158,NaN,dog,dog,0,5758_ps_dnn_0_dog_10_n02099267_3229.png
cornet-s,6,159,NaN,dog,dog,0,5759_ps_dnn_0_dog_10_n02113799_87.png
cornet-s,6,160,NaN,dog,dog,0,5760_ps_dnn_0_dog_10_n02106030_6459.png
cornet-s,6,161,NaN,knife,knife,30,5761_ps_dnn_30_knife_10_n03041632_37274.png
cornet-s,6,162,NaN,knife,knife,30,5762_ps_dnn_30_knife_10_n03041632_96714.png
cornet-s,6,163,NaN,knife,knife,30,5763_ps_dnn_30_knife_10_n03041632_25257.png
cornet-s,6,164,NaN,cat,knife,30,5764_ps_dnn_30_knife_10_n03041632_85416.png
cornet-s,6,165,NaN,knife,knife,30,5765_ps_dnn_30_knife_10_n03041632_40530.png
cornet-s,6,166,NaN,knife,knife,30,5766_ps_dnn_30_knife_10_n03041632_26340.png
cornet-s,6,167,NaN,knife,knife,30,5767_ps_dnn_30_knife_10_n03041632_1201.png
cornet-s,6,168,NaN,knife,knife,30,5768_ps_dnn_30_knife_10_n03041632_737.png
cornet-s,6,169,NaN,knife,knife,30,5769_ps_dnn_30_knife_10_n03041632_50423.png
cornet-s,6,170,NaN,knife,knife,30,5770_ps_dnn_30_knife_10_n03041632_7119.png
cornet-s,6,171,NaN,keyboard,keyboard,30,5771_ps_dnn_30_keyboard_10_n04505470_486.png
cornet-s,6,172,NaN,keyboard,keyboard,30,5772_ps_dnn_30_keyboard_10_n04505470_8386.png
cornet-s,6,173,NaN,keyboard,keyboard,30,5773_ps_dnn_30_keyboard_10_n04505470_10191.png
cornet-s,6,174,NaN,keyboard,keyboard,30,5774_ps_dnn_30_keyboard_10_n03085013_688.png
cornet-s,6,175,NaN,keyboard,keyboard,30,5775_ps_dnn_30_keyboard_10_n03085013_30943.png
cornet-s,6,176,NaN,clock,keyboard,30,5776_ps_dnn_30_keyboard_10_n03085013_2725.png
cornet-s,6,177,NaN,keyboard,keyboard,30,5777_ps_dnn_30_keyboard_10_n04505470_5070.png
cornet-s,6,178,NaN,oven,keyboard,30,5778_ps_dnn_30_keyboard_10_n03085013_22820.png
cornet-s,6,179,NaN,keyboard,keyboard,30,5779_ps_dnn_30_keyboard_10_n04505470_4741.png
cornet-s,6,180,NaN,keyboard,keyboard,30,5780_ps_dnn_30_keyboard_10_n03085013_8007.png
cornet-s,6,181,NaN,elephant,elephant,30,5781_ps_dnn_30_elephant_10_n02504458_3105.png
cornet-s,6,182,NaN,elephant,elephant,30,5782_ps_dnn_30_elephant_10_n02504013_18005.png
cornet-s,6,183,NaN,elephant,elephant,30,5783_ps_dnn_30_elephant_10_n02504458_13179.png
cornet-s,6,184,NaN,elephant,elephant,30,5784_ps_dnn_30_elephant_10_n02504458_2628.png
cornet-s,6,185,NaN,elephant,elephant,30,5785_ps_dnn_30_elephant_10_n02504013_1784.png
cornet-s,6,186,NaN,knife,elephant,30,5786_ps_dnn_30_elephant_10_n02504013_4278.png
cornet-s,6,187,NaN,elephant,elephant,30,5787_ps_dnn_30_elephant_10_n02504458_3897.png
cornet-s,6,188,NaN,elephant,elephant,30,5788_ps_dnn_30_elephant_10_n02504458_1464.png
cornet-s,6,189,NaN,elephant,elephant,30,5789_ps_dnn_30_elephant_10_n02504458_1521.png
cornet-s,6,190,NaN,elephant,elephant,30,5790_ps_dnn_30_elephant_10_n02504458_6880.png
cornet-s,6,191,NaN,bicycle,bicycle,30,5791_ps_dnn_30_bicycle_10_n03792782_33649.png
cornet-s,6,192,NaN,bicycle,bicycle,30,5792_ps_dnn_30_bicycle_10_n03792782_5557.png
cornet-s,6,193,NaN,bicycle,bicycle,30,5793_ps_dnn_30_bicycle_10_n02835271_4749.png
cornet-s,6,194,NaN,bicycle,bicycle,30,5794_ps_dnn_30_bicycle_10_n03792782_8374.png
cornet-s,6,195,NaN,bicycle,bicycle,30,5795_ps_dnn_30_bicycle_10_n03792782_9413.png
cornet-s,6,196,NaN,bicycle,bicycle,30,5796_ps_dnn_30_bicycle_10_n03792782_14012.png
cornet-s,6,197,NaN,bicycle,bicycle,30,5797_ps_dnn_30_bicycle_10_n02835271_20858.png
cornet-s,6,198,NaN,bicycle,bicycle,30,5798_ps_dnn_30_bicycle_10_n03792782_471.png
cornet-s,6,199,NaN,bicycle,bicycle,30,5799_ps_dnn_30_bicycle_10_n02835271_7350.png
cornet-s,6,200,NaN,bicycle,bicycle,30,5800_ps_dnn_30_bicycle_10_n03792782_18687.png
cornet-s,6,201,NaN,airplane,airplane,30,5801_ps_dnn_30_airplane_10_n02690373_3729.png
cornet-s,6,202,NaN,airplane,airplane,30,5802_ps_dnn_30_airplane_10_n02690373_9963.png
cornet-s,6,203,NaN,airplane,airplane,30,5803_ps_dnn_30_airplane_10_n02690373_1615.png
cornet-s,6,204,NaN,airplane,airplane,30,5804_ps_dnn_30_airplane_10_n02690373_2240.png
cornet-s,6,205,NaN,airplane,airplane,30,5805_ps_dnn_30_airplane_10_n02690373_2379.png
cornet-s,6,206,NaN,airplane,airplane,30,5806_ps_dnn_30_airplane_10_n02690373_3408.png
cornet-s,6,207,NaN,airplane,airplane,30,5807_ps_dnn_30_airplane_10_n02690373_243.png
cornet-s,6,208,NaN,airplane,airplane,30,5808_ps_dnn_30_airplane_10_n02690373_6663.png
cornet-s,6,209,NaN,airplane,airplane,30,5809_ps_dnn_30_airplane_10_n02690373_2611.png
cornet-s,6,210,NaN,airplane,airplane,30,5810_ps_dnn_30_airplane_10_n02690373_1704.png
cornet-s,6,211,NaN,clock,clock,30,5811_ps_dnn_30_clock_10_n02708093_2094.png
cornet-s,6,212,NaN,clock,clock,30,5812_ps_dnn_30_clock_10_n02708093_6148.png
cornet-s,6,213,NaN,clock,clock,30,5813_ps_dnn_30_clock_10_n04548280_7354.png
cornet-s,6,214,NaN,clock,clock,30,5814_ps_dnn_30_clock_10_n03196217_11199.png
cornet-s,6,215,NaN,clock,clock,30,5815_ps_dnn_30_clock_10_n02708093_340.png
cornet-s,6,216,NaN,knife,clock,30,5816_ps_dnn_30_clock_10_n04548280_757.png
cornet-s,6,217,NaN,clock,clock,30,5817_ps_dnn_30_clock_10_n02708093_31.png
cornet-s,6,218,NaN,clock,clock,30,5818_ps_dnn_30_clock_10_n03196217_12131.png
cornet-s,6,219,NaN,clock,clock,30,5819_ps_dnn_30_clock_10_n02708093_2283.png
cornet-s,6,220,NaN,clock,clock,30,5820_ps_dnn_30_clock_10_n03196217_7808.png
cornet-s,6,221,NaN,chair,oven,30,5821_ps_dnn_30_oven_10_n04111531_21869.png
cornet-s,6,222,NaN,oven,oven,30,5822_ps_dnn_30_oven_10_n04111531_6412.png
cornet-s,6,223,NaN,oven,oven,30,5823_ps_dnn_30_oven_10_n04111531_8963.png
cornet-s,6,224,NaN,oven,oven,30,5824_ps_dnn_30_oven_10_n04111531_9613.png
cornet-s,6,225,NaN,oven,oven,30,5825_ps_dnn_30_oven_10_n04111531_4113.png
cornet-s,6,226,NaN,oven,oven,30,5826_ps_dnn_30_oven_10_n04111531_15635.png
cornet-s,6,227,NaN,oven,oven,30,5827_ps_dnn_30_oven_10_n04111531_12702.png
cornet-s,6,228,NaN,oven,oven,30,5828_ps_dnn_30_oven_10_n04111531_22493.png
cornet-s,6,229,NaN,oven,oven,30,5829_ps_dnn_30_oven_10_n04111531_13128.png
cornet-s,6,230,NaN,oven,oven,30,5830_ps_dnn_30_oven_10_n04111531_5727.png
cornet-s,6,231,NaN,chair,chair,30,5831_ps_dnn_30_chair_10_n04099969_2694.png
cornet-s,6,232,NaN,chair,chair,30,5832_ps_dnn_30_chair_10_n03376595_7772.png
cornet-s,6,233,NaN,chair,chair,30,5833_ps_dnn_30_chair_10_n04099969_4041.png
cornet-s,6,234,NaN,chair,chair,30,5834_ps_dnn_30_chair_10_n02791124_4470.png
cornet-s,6,235,NaN,chair,chair,30,5835_ps_dnn_30_chair_10_n04099969_9243.png
cornet-s,6,236,NaN,chair,chair,30,5836_ps_dnn_30_chair_10_n04429376_11964.png
cornet-s,6,237,NaN,chair,chair,30,5837_ps_dnn_30_chair_10_n02791124_7824.png
cornet-s,6,238,NaN,chair,chair,30,5838_ps_dnn_30_chair_10_n02791124_16868.png
cornet-s,6,239,NaN,chair,chair,30,5839_ps_dnn_30_chair_10_n04429376_311.png
cornet-s,6,240,NaN,chair,chair,30,5840_ps_dnn_30_chair_10_n04099969_2398.png
cornet-s,6,241,NaN,bear,bear,30,5841_ps_dnn_30_bear_10_n02134418_13651.png
cornet-s,6,242,NaN,bear,bear,30,5842_ps_dnn_30_bear_10_n02133161_7000.png
cornet-s,6,243,NaN,bear,bear,30,5843_ps_dnn_30_bear_10_n02133161_16249.png
cornet-s,6,244,NaN,bear,bear,30,5844_ps_dnn_30_bear_10_n02132136_2489.png
cornet-s,6,245,NaN,bear,bear,30,5845_ps_dnn_30_bear_10_n02134084_6264.png
cornet-s,6,246,NaN,bear,bear,30,5846_ps_dnn_30_bear_10_n02133161_4903.png
cornet-s,6,247,NaN,bear,bear,30,5847_ps_dnn_30_bear_10_n02134084_1802.png
cornet-s,6,248,NaN,bear,bear,30,5848_ps_dnn_30_bear_10_n02134084_3696.png
cornet-s,6,249,NaN,bear,bear,30,5849_ps_dnn_30_bear_10_n02134418_48.png
cornet-s,6,250,NaN,bear,bear,30,5850_ps_dnn_30_bear_10_n02132136_13097.png
cornet-s,6,251,NaN,boat,boat,30,5851_ps_dnn_30_boat_10_n04612504_1935.png
cornet-s,6,252,NaN,boat,boat,30,5852_ps_dnn_30_boat_10_n02951358_29382.png
cornet-s,6,253,NaN,boat,boat,30,5853_ps_dnn_30_boat_10_n02951358_14280.png
cornet-s,6,254,NaN,boat,boat,30,5854_ps_dnn_30_boat_10_n02951358_12436.png
cornet-s,6,255,NaN,boat,boat,30,5855_ps_dnn_30_boat_10_n04273569_27014.png
cornet-s,6,256,NaN,boat,boat,30,5856_ps_dnn_30_boat_10_n03344393_428.png
cornet-s,6,257,NaN,boat,boat,30,5857_ps_dnn_30_boat_10_n03662601_14940.png
cornet-s,6,258,NaN,boat,boat,30,5858_ps_dnn_30_boat_10_n03662601_9926.png
cornet-s,6,259,NaN,boat,boat,30,5859_ps_dnn_30_boat_10_n03344393_3174.png
cornet-s,6,260,NaN,boat,boat,30,5860_ps_dnn_30_boat_10_n03344393_4213.png
cornet-s,6,261,NaN,cat,cat,30,5861_ps_dnn_30_cat_10_n02123394_2450.png
cornet-s,6,262,NaN,cat,cat,30,5862_ps_dnn_30_cat_10_n02123394_2777.png
cornet-s,6,263,NaN,cat,cat,30,5863_ps_dnn_30_cat_10_n02123394_6693.png
cornet-s,6,264,NaN,cat,cat,30,5864_ps_dnn_30_cat_10_n02123159_1419.png
cornet-s,6,265,NaN,cat,cat,30,5865_ps_dnn_30_cat_10_n02123597_12507.png
cornet-s,6,266,NaN,cat,cat,30,5866_ps_dnn_30_cat_10_n02123597_13229.png
cornet-s,6,267,NaN,cat,cat,30,5867_ps_dnn_30_cat_10_n02124075_2663.png
cornet-s,6,268,NaN,cat,cat,30,5868_ps_dnn_30_cat_10_n02123045_7335.png
cornet-s,6,269,NaN,cat,cat,30,5869_ps_dnn_30_cat_10_n02123597_32577.png
cornet-s,6,270,NaN,cat,cat,30,5870_ps_dnn_30_cat_10_n02123394_1441.png
cornet-s,6,271,NaN,clock,bottle,30,5871_ps_dnn_30_bottle_10_n04557648_3530.png
cornet-s,6,272,NaN,bottle,bottle,30,5872_ps_dnn_30_bottle_10_n04557648_9952.png
cornet-s,6,273,NaN,chair,bottle,30,5873_ps_dnn_30_bottle_10_n04560804_5.png
cornet-s,6,274,NaN,bottle,bottle,30,5874_ps_dnn_30_bottle_10_n03983396_2287.png
cornet-s,6,275,NaN,bottle,bottle,30,5875_ps_dnn_30_bottle_10_n04591713_6707.png
cornet-s,6,276,NaN,bottle,bottle,30,5876_ps_dnn_30_bottle_10_n04557648_2714.png
cornet-s,6,277,NaN,bottle,bottle,30,5877_ps_dnn_30_bottle_10_n03937543_5703.png
cornet-s,6,278,NaN,bottle,bottle,30,5878_ps_dnn_30_bottle_10_n04560804_15941.png
cornet-s,6,279,NaN,bottle,bottle,30,5879_ps_dnn_30_bottle_10_n03937543_2927.png
cornet-s,6,280,NaN,bottle,bottle,30,5880_ps_dnn_30_bottle_10_n04560804_15441.png
cornet-s,6,281,NaN,truck,truck,30,5881_ps_dnn_30_truck_10_n03417042_3518.png
cornet-s,6,282,NaN,truck,truck,30,5882_ps_dnn_30_truck_10_n03796401_19114.png
cornet-s,6,283,NaN,truck,truck,30,5883_ps_dnn_30_truck_10_n03417042_6420.png
cornet-s,6,284,NaN,truck,truck,30,5884_ps_dnn_30_truck_10_n03417042_6623.png
cornet-s,6,285,NaN,truck,truck,30,5885_ps_dnn_30_truck_10_n03417042_12170.png
cornet-s,6,286,NaN,truck,truck,30,5886_ps_dnn_30_truck_10_n03417042_17645.png
cornet-s,6,287,NaN,truck,truck,30,5887_ps_dnn_30_truck_10_n03796401_18936.png
cornet-s,6,288,NaN,truck,truck,30,5888_ps_dnn_30_truck_10_n03417042_26939.png
cornet-s,6,289,NaN,truck,truck,30,5889_ps_dnn_30_truck_10_n03417042_28707.png
cornet-s,6,290,NaN,truck,truck,30,5890_ps_dnn_30_truck_10_n03417042_3479.png
cornet-s,6,291,NaN,car,car,30,5891_ps_dnn_30_car_10_n02814533_6150.png
cornet-s,6,292,NaN,car,car,30,5892_ps_dnn_30_car_10_n03100240_1903.png
cornet-s,6,293,NaN,truck,car,30,5893_ps_dnn_30_car_10_n03100240_16690.png
cornet-s,6,294,NaN,truck,car,30,5894_ps_dnn_30_car_10_n03100240_18304.png
cornet-s,6,295,NaN,truck,car,30,5895_ps_dnn_30_car_10_n03100240_2591.png
cornet-s,6,296,NaN,car,car,30,5896_ps_dnn_30_car_10_n04285008_7249.png
cornet-s,6,297,NaN,car,car,30,5897_ps_dnn_30_car_10_n04285008_16604.png
cornet-s,6,298,NaN,car,car,30,5898_ps_dnn_30_car_10_n03100240_3936.png
cornet-s,6,299,NaN,car,car,30,5899_ps_dnn_30_car_10_n04285008_13739.png
cornet-s,6,300,NaN,car,car,30,5900_ps_dnn_30_car_10_n04285008_1140.png
cornet-s,6,301,NaN,bird,bird,30,5901_ps_dnn_30_bird_10_n01514859_7087.png
cornet-s,6,302,NaN,bird,bird,30,5902_ps_dnn_30_bird_10_n01616318_14512.png
cornet-s,6,303,NaN,bicycle,bird,30,5903_ps_dnn_30_bird_10_n01819313_6739.png
cornet-s,6,304,NaN,bird,bird,30,5904_ps_dnn_30_bird_10_n02033041_9947.png
cornet-s,6,305,NaN,bird,bird,30,5905_ps_dnn_30_bird_10_n01616318_8599.png
cornet-s,6,306,NaN,bird,bird,30,5906_ps_dnn_30_bird_10_n02013706_1092.png
cornet-s,6,307,NaN,bird,bird,30,5907_ps_dnn_30_bird_10_n02051845_323.png
cornet-s,6,308,NaN,bird,bird,30,5908_ps_dnn_30_bird_10_n01828970_1718.png
cornet-s,6,309,NaN,bird,bird,30,5909_ps_dnn_30_bird_10_n02006656_10580.png
cornet-s,6,310,NaN,bird,bird,30,5910_ps_dnn_30_bird_10_n02013706_9550.png
cornet-s,6,311,NaN,dog,dog,30,5911_ps_dnn_30_dog_10_n02111500_6261.png
cornet-s,6,312,NaN,dog,dog,30,5912_ps_dnn_30_dog_10_n02102318_22263.png
cornet-s,6,313,NaN,dog,dog,30,5913_ps_dnn_30_dog_10_n02097474_462.png
cornet-s,6,314,NaN,dog,dog,30,5914_ps_dnn_30_dog_10_n02113978_8626.png
cornet-s,6,315,NaN,dog,dog,30,5915_ps_dnn_30_dog_10_n02106662_5979.png
cornet-s,6,316,NaN,dog,dog,30,5916_ps_dnn_30_dog_10_n02102177_255.png
cornet-s,6,317,NaN,dog,dog,30,5917_ps_dnn_30_dog_10_n02094258_5438.png
cornet-s,6,318,NaN,dog,dog,30,5918_ps_dnn_30_dog_10_n02091244_9751.png
cornet-s,6,319,NaN,dog,dog,30,5919_ps_dnn_30_dog_10_n02089867_6231.png
cornet-s,6,320,NaN,dog,dog,30,5920_ps_dnn_30_dog_10_n02100735_9302.png
cornet-s,6,321,NaN,knife,knife,60,5921_ps_dnn_60_knife_10_n03041632_44238.png
cornet-s,6,322,NaN,knife,knife,60,5922_ps_dnn_60_knife_10_n03041632_55711.png
cornet-s,6,323,NaN,bicycle,knife,60,5923_ps_dnn_60_knife_10_n03041632_24376.png
cornet-s,6,324,NaN,oven,knife,60,5924_ps_dnn_60_knife_10_n03041632_37949.png
cornet-s,6,325,NaN,knife,knife,60,5925_ps_dnn_60_knife_10_n03041632_15444.png
cornet-s,6,326,NaN,knife,knife,60,5926_ps_dnn_60_knife_10_n03041632_81004.png
cornet-s,6,327,NaN,knife,knife,60,5927_ps_dnn_60_knife_10_n03041632_48062.png
cornet-s,6,328,NaN,knife,knife,60,5928_ps_dnn_60_knife_10_n03041632_206.png
cornet-s,6,329,NaN,knife,knife,60,5929_ps_dnn_60_knife_10_n03041632_29858.png
cornet-s,6,330,NaN,knife,knife,60,5930_ps_dnn_60_knife_10_n03041632_31037.png
cornet-s,6,331,NaN,knife,keyboard,60,5931_ps_dnn_60_keyboard_10_n03085013_24144.png
cornet-s,6,332,NaN,keyboard,keyboard,60,5932_ps_dnn_60_keyboard_10_n04505470_3905.png
cornet-s,6,333,NaN,keyboard,keyboard,60,5933_ps_dnn_60_keyboard_10_n03085013_7913.png
cornet-s,6,334,NaN,keyboard,keyboard,60,5934_ps_dnn_60_keyboard_10_n03085013_22700.png
cornet-s,6,335,NaN,keyboard,keyboard,60,5935_ps_dnn_60_keyboard_10_n04505470_4827.png
cornet-s,6,336,NaN,keyboard,keyboard,60,5936_ps_dnn_60_keyboard_10_n04505470_5024.png
cornet-s,6,337,NaN,knife,keyboard,60,5937_ps_dnn_60_keyboard_10_n03085013_2335.png
cornet-s,6,338,NaN,keyboard,keyboard,60,5938_ps_dnn_60_keyboard_10_n03085013_23563.png
cornet-s,6,339,NaN,keyboard,keyboard,60,5939_ps_dnn_60_keyboard_10_n04505470_9952.png
cornet-s,6,340,NaN,keyboard,keyboard,60,5940_ps_dnn_60_keyboard_10_n04505470_4369.png
cornet-s,6,341,NaN,elephant,elephant,60,5941_ps_dnn_60_elephant_10_n02504013_22388.png
cornet-s,6,342,NaN,elephant,elephant,60,5942_ps_dnn_60_elephant_10_n02504458_6033.png
cornet-s,6,343,NaN,elephant,elephant,60,5943_ps_dnn_60_elephant_10_n02504458_13406.png
cornet-s,6,344,NaN,elephant,elephant,60,5944_ps_dnn_60_elephant_10_n02504458_6261.png
cornet-s,6,345,NaN,oven,elephant,60,5945_ps_dnn_60_elephant_10_n02504458_5902.png
cornet-s,6,346,NaN,elephant,elephant,60,5946_ps_dnn_60_elephant_10_n02504458_12586.png
cornet-s,6,347,NaN,elephant,elephant,60,5947_ps_dnn_60_elephant_10_n02504013_868.png
cornet-s,6,348,NaN,elephant,elephant,60,5948_ps_dnn_60_elephant_10_n02504458_373.png
cornet-s,6,349,NaN,elephant,elephant,60,5949_ps_dnn_60_elephant_10_n02504458_57.png
cornet-s,6,350,NaN,elephant,elephant,60,5950_ps_dnn_60_elephant_10_n02504013_7553.png
cornet-s,6,351,NaN,bicycle,bicycle,60,5951_ps_dnn_60_bicycle_10_n02835271_13551.png
cornet-s,6,352,NaN,bicycle,bicycle,60,5952_ps_dnn_60_bicycle_10_n02835271_4015.png
cornet-s,6,353,NaN,bicycle,bicycle,60,5953_ps_dnn_60_bicycle_10_n02835271_8982.png
cornet-s,6,354,NaN,bicycle,bicycle,60,5954_ps_dnn_60_bicycle_10_n03792782_50335.png
cornet-s,6,355,NaN,bicycle,bicycle,60,5955_ps_dnn_60_bicycle_10_n02835271_10827.png
cornet-s,6,356,NaN,oven,bicycle,60,5956_ps_dnn_60_bicycle_10_n02835271_9944.png
cornet-s,6,357,NaN,bicycle,bicycle,60,5957_ps_dnn_60_bicycle_10_n02835271_1738.png
cornet-s,6,358,NaN,bicycle,bicycle,60,5958_ps_dnn_60_bicycle_10_n03792782_68319.png
cornet-s,6,359,NaN,bicycle,bicycle,60,5959_ps_dnn_60_bicycle_10_n02835271_4374.png
cornet-s,6,360,NaN,bicycle,bicycle,60,5960_ps_dnn_60_bicycle_10_n03792782_29509.png
cornet-s,6,361,NaN,airplane,airplane,60,5961_ps_dnn_60_airplane_10_n02690373_9071.png
cornet-s,6,362,NaN,airplane,airplane,60,5962_ps_dnn_60_airplane_10_n02690373_8417.png
cornet-s,6,363,NaN,airplane,airplane,60,5963_ps_dnn_60_airplane_10_n02690373_8925.png
cornet-s,6,364,NaN,airplane,airplane,60,5964_ps_dnn_60_airplane_10_n02690373_10481.png
cornet-s,6,365,NaN,airplane,airplane,60,5965_ps_dnn_60_airplane_10_n02690373_4175.png
cornet-s,6,366,NaN,airplane,airplane,60,5966_ps_dnn_60_airplane_10_n02690373_980.png
cornet-s,6,367,NaN,airplane,airplane,60,5967_ps_dnn_60_airplane_10_n02690373_4495.png
cornet-s,6,368,NaN,airplane,airplane,60,5968_ps_dnn_60_airplane_10_n02690373_427.png
cornet-s,6,369,NaN,airplane,airplane,60,5969_ps_dnn_60_airplane_10_n02690373_191.png
cornet-s,6,370,NaN,airplane,airplane,60,5970_ps_dnn_60_airplane_10_n02690373_817.png
cornet-s,6,371,NaN,knife,clock,60,5971_ps_dnn_60_clock_10_n02708093_2242.png
cornet-s,6,372,NaN,clock,clock,60,5972_ps_dnn_60_clock_10_n03196217_108.png
cornet-s,6,373,NaN,clock,clock,60,5973_ps_dnn_60_clock_10_n03196217_868.png
cornet-s,6,374,NaN,clock,clock,60,5974_ps_dnn_60_clock_10_n04548280_5076.png
cornet-s,6,375,NaN,clock,clock,60,5975_ps_dnn_60_clock_10_n02708093_6673.png
cornet-s,6,376,NaN,clock,clock,60,5976_ps_dnn_60_clock_10_n03196217_1219.png
cornet-s,6,377,NaN,clock,clock,60,5977_ps_dnn_60_clock_10_n02708093_5030.png
cornet-s,6,378,NaN,knife,clock,60,5978_ps_dnn_60_clock_10_n03196217_10936.png
cornet-s,6,379,NaN,clock,clock,60,5979_ps_dnn_60_clock_10_n03196217_9624.png
cornet-s,6,380,NaN,clock,clock,60,5980_ps_dnn_60_clock_10_n03196217_421.png
cornet-s,6,381,NaN,oven,oven,60,5981_ps_dnn_60_oven_10_n04111531_6479.png
cornet-s,6,382,NaN,oven,oven,60,5982_ps_dnn_60_oven_10_n04111531_1794.png
cornet-s,6,383,NaN,clock,oven,60,5983_ps_dnn_60_oven_10_n04111531_2381.png
cornet-s,6,384,NaN,bottle,oven,60,5984_ps_dnn_60_oven_10_n04111531_6094.png
cornet-s,6,385,NaN,oven,oven,60,5985_ps_dnn_60_oven_10_n04111531_924.png
cornet-s,6,386,NaN,oven,oven,60,5986_ps_dnn_60_oven_10_n04111531_13172.png
cornet-s,6,387,NaN,oven,oven,60,5987_ps_dnn_60_oven_10_n04111531_10011.png
cornet-s,6,388,NaN,oven,oven,60,5988_ps_dnn_60_oven_10_n04111531_1898.png
cornet-s,6,389,NaN,oven,oven,60,5989_ps_dnn_60_oven_10_n04111531_695.png
cornet-s,6,390,NaN,oven,oven,60,5990_ps_dnn_60_oven_10_n04111531_3477.png
cornet-s,6,391,NaN,chair,chair,60,5991_ps_dnn_60_chair_10_n03376595_1556.png
cornet-s,6,392,NaN,chair,chair,60,5992_ps_dnn_60_chair_10_n03376595_2234.png
cornet-s,6,393,NaN,chair,chair,60,5993_ps_dnn_60_chair_10_n02791124_2379.png
cornet-s,6,394,NaN,chair,chair,60,5994_ps_dnn_60_chair_10_n02791124_5845.png
cornet-s,6,395,NaN,chair,chair,60,5995_ps_dnn_60_chair_10_n02791124_3138.png
cornet-s,6,396,NaN,chair,chair,60,5996_ps_dnn_60_chair_10_n02791124_2369.png
cornet-s,6,397,NaN,chair,chair,60,5997_ps_dnn_60_chair_10_n03376595_2465.png
cornet-s,6,398,NaN,chair,chair,60,5998_ps_dnn_60_chair_10_n04099969_4825.png
cornet-s,6,399,NaN,chair,chair,60,5999_ps_dnn_60_chair_10_n02791124_1115.png
cornet-s,6,400,NaN,chair,chair,60,6000_ps_dnn_60_chair_10_n02791124_6380.png
cornet-s,6,401,NaN,bear,bear,60,6001_ps_dnn_60_bear_10_n02133161_19652.png
cornet-s,6,402,NaN,bear,bear,60,6002_ps_dnn_60_bear_10_n02134084_23313.png
cornet-s,6,403,NaN,bear,bear,60,6003_ps_dnn_60_bear_10_n02132136_3331.png
cornet-s,6,404,NaN,bear,bear,60,6004_ps_dnn_60_bear_10_n02132136_21799.png
cornet-s,6,405,NaN,bear,bear,60,6005_ps_dnn_60_bear_10_n02132136_6263.png
cornet-s,6,406,NaN,bear,bear,60,6006_ps_dnn_60_bear_10_n02134084_3564.png
cornet-s,6,407,NaN,bear,bear,60,6007_ps_dnn_60_bear_10_n02134084_10289.png
cornet-s,6,408,NaN,bear,bear,60,6008_ps_dnn_60_bear_10_n02132136_5158.png
cornet-s,6,409,NaN,bear,bear,60,6009_ps_dnn_60_bear_10_n02134084_19803.png
cornet-s,6,410,NaN,bear,bear,60,6010_ps_dnn_60_bear_10_n02133161_4857.png
cornet-s,6,411,NaN,boat,boat,60,6011_ps_dnn_60_boat_10_n02951358_29499.png
cornet-s,6,412,NaN,boat,boat,60,6012_ps_dnn_60_boat_10_n03344393_6297.png
cornet-s,6,413,NaN,boat,boat,60,6013_ps_dnn_60_boat_10_n03662601_25621.png
cornet-s,6,414,NaN,boat,boat,60,6014_ps_dnn_60_boat_10_n02951358_34418.png
cornet-s,6,415,NaN,boat,boat,60,6015_ps_dnn_60_boat_10_n04612504_18059.png
cornet-s,6,416,NaN,boat,boat,60,6016_ps_dnn_60_boat_10_n03662601_4787.png
cornet-s,6,417,NaN,clock,boat,60,6017_ps_dnn_60_boat_10_n03662601_15416.png
cornet-s,6,418,NaN,boat,boat,60,6018_ps_dnn_60_boat_10_n03662601_1524.png
cornet-s,6,419,NaN,boat,boat,60,6019_ps_dnn_60_boat_10_n02951358_30269.png
cornet-s,6,420,NaN,boat,boat,60,6020_ps_dnn_60_boat_10_n04612504_9368.png
cornet-s,6,421,NaN,cat,cat,60,6021_ps_dnn_60_cat_10_n02123159_6696.png
cornet-s,6,422,NaN,cat,cat,60,6022_ps_dnn_60_cat_10_n02125311_47265.png
cornet-s,6,423,NaN,cat,cat,60,6023_ps_dnn_60_cat_10_n02123597_225.png
cornet-s,6,424,NaN,cat,cat,60,6024_ps_dnn_60_cat_10_n02123159_716.png
cornet-s,6,425,NaN,cat,cat,60,6025_ps_dnn_60_cat_10_n02124075_2884.png
cornet-s,6,426,NaN,cat,cat,60,6026_ps_dnn_60_cat_10_n02123159_3043.png
cornet-s,6,427,NaN,cat,cat,60,6027_ps_dnn_60_cat_10_n02123394_7402.png
cornet-s,6,428,NaN,cat,cat,60,6028_ps_dnn_60_cat_10_n02123159_6610.png
cornet-s,6,429,NaN,cat,cat,60,6029_ps_dnn_60_cat_10_n02123159_4318.png
cornet-s,6,430,NaN,cat,cat,60,6030_ps_dnn_60_cat_10_n02123159_2416.png
cornet-s,6,431,NaN,elephant,bottle,60,6031_ps_dnn_60_bottle_10_n04557648_20275.png
cornet-s,6,432,NaN,bottle,bottle,60,6032_ps_dnn_60_bottle_10_n02823428_1618.png
cornet-s,6,433,NaN,bottle,bottle,60,6033_ps_dnn_60_bottle_10_n02823428_2479.png
cornet-s,6,434,NaN,knife,bottle,60,6034_ps_dnn_60_bottle_10_n04557648_23801.png
cornet-s,6,435,NaN,bottle,bottle,60,6035_ps_dnn_60_bottle_10_n03983396_7082.png
cornet-s,6,436,NaN,knife,bottle,60,6036_ps_dnn_60_bottle_10_n04560804_18539.png
cornet-s,6,437,NaN,bottle,bottle,60,6037_ps_dnn_60_bottle_10_n04557648_349.png
cornet-s,6,438,NaN,bottle,bottle,60,6038_ps_dnn_60_bottle_10_n04557648_4428.png
cornet-s,6,439,NaN,bottle,bottle,60,6039_ps_dnn_60_bottle_10_n03937543_11953.png
cornet-s,6,440,NaN,bottle,bottle,60,6040_ps_dnn_60_bottle_10_n04560804_6858.png
cornet-s,6,441,NaN,truck,truck,60,6041_ps_dnn_60_truck_10_n03417042_7002.png
cornet-s,6,442,NaN,truck,truck,60,6042_ps_dnn_60_truck_10_n03417042_14717.png
cornet-s,6,443,NaN,truck,truck,60,6043_ps_dnn_60_truck_10_n03796401_22263.png
cornet-s,6,444,NaN,bottle,truck,60,6044_ps_dnn_60_truck_10_n04467665_2797.png
cornet-s,6,445,NaN,truck,truck,60,6045_ps_dnn_60_truck_10_n03417042_26919.png
cornet-s,6,446,NaN,boat,truck,60,6046_ps_dnn_60_truck_10_n03417042_9668.png
cornet-s,6,447,NaN,boat,truck,60,6047_ps_dnn_60_truck_10_n04467665_58341.png
cornet-s,6,448,NaN,truck,truck,60,6048_ps_dnn_60_truck_10_n04467665_3876.png
cornet-s,6,449,NaN,truck,truck,60,6049_ps_dnn_60_truck_10_n04467665_33667.png
cornet-s,6,450,NaN,truck,truck,60,6050_ps_dnn_60_truck_10_n03796401_6684.png
cornet-s,6,451,NaN,truck,car,60,6051_ps_dnn_60_car_10_n02814533_24007.png
cornet-s,6,452,NaN,car,car,60,6052_ps_dnn_60_car_10_n03100240_9099.png
cornet-s,6,453,NaN,car,car,60,6053_ps_dnn_60_car_10_n04285008_11295.png
cornet-s,6,454,NaN,car,car,60,6054_ps_dnn_60_car_10_n02814533_149.png
cornet-s,6,455,NaN,car,car,60,6055_ps_dnn_60_car_10_n02814533_53382.png
cornet-s,6,456,NaN,car,car,60,6056_ps_dnn_60_car_10_n02814533_65759.png
cornet-s,6,457,NaN,car,car,60,6057_ps_dnn_60_car_10_n03100240_584.png
cornet-s,6,458,NaN,car,car,60,6058_ps_dnn_60_car_10_n02814533_90053.png
cornet-s,6,459,NaN,car,car,60,6059_ps_dnn_60_car_10_n02814533_58398.png
cornet-s,6,460,NaN,car,car,60,6060_ps_dnn_60_car_10_n02814533_21263.png
cornet-s,6,461,NaN,knife,bird,60,6061_ps_dnn_60_bird_10_n01829413_7817.png
cornet-s,6,462,NaN,elephant,bird,60,6062_ps_dnn_60_bird_10_n01616318_2101.png
cornet-s,6,463,NaN,bird,bird,60,6063_ps_dnn_60_bird_10_n01601694_12159.png
cornet-s,6,464,NaN,bird,bird,60,6064_ps_dnn_60_bird_10_n02002556_3731.png
cornet-s,6,465,NaN,bird,bird,60,6065_ps_dnn_60_bird_10_n02025239_7273.png
cornet-s,6,466,NaN,bird,bird,60,6066_ps_dnn_60_bird_10_n02002724_19807.png
cornet-s,6,467,NaN,clock,bird,60,6067_ps_dnn_60_bird_10_n02018795_16717.png
cornet-s,6,468,NaN,bird,bird,60,6068_ps_dnn_60_bird_10_n01855032_5722.png
cornet-s,6,469,NaN,bicycle,bird,60,6069_ps_dnn_60_bird_10_n01860187_9735.png
cornet-s,6,470,NaN,bird,bird,60,6070_ps_dnn_60_bird_10_n01531178_13428.png
cornet-s,6,471,NaN,elephant,dog,60,6071_ps_dnn_60_dog_10_n02106550_4874.png
cornet-s,6,472,NaN,dog,dog,60,6072_ps_dnn_60_dog_10_n02106166_22738.png
cornet-s,6,473,NaN,dog,dog,60,6073_ps_dnn_60_dog_10_n02110063_15548.png
cornet-s,6,474,NaN,cat,dog,60,6074_ps_dnn_60_dog_10_n02096051_7506.png
cornet-s,6,475,NaN,dog,dog,60,6075_ps_dnn_60_dog_10_n02113023_7286.png
cornet-s,6,476,NaN,dog,dog,60,6076_ps_dnn_60_dog_10_n02097047_6553.png
cornet-s,6,477,NaN,cat,dog,60,6077_ps_dnn_60_dog_10_n02093256_969.png
cornet-s,6,478,NaN,bear,dog,60,6078_ps_dnn_60_dog_10_n02111500_3956.png
cornet-s,6,479,NaN,chair,dog,60,6079_ps_dnn_60_dog_10_n02088094_2698.png
cornet-s,6,480,NaN,dog,dog,60,6080_ps_dnn_60_dog_10_n02107683_3671.png
cornet-s,6,481,NaN,knife,knife,90,6081_ps_dnn_90_knife_10_n03041632_38433.png
cornet-s,6,482,NaN,oven,knife,90,6082_ps_dnn_90_knife_10_n03041632_10140.png
cornet-s,6,483,NaN,bear,knife,90,6083_ps_dnn_90_knife_10_n03041632_21590.png
cornet-s,6,484,NaN,chair,knife,90,6084_ps_dnn_90_knife_10_n03041632_4708.png
cornet-s,6,485,NaN,knife,knife,90,6085_ps_dnn_90_knife_10_n03041632_31367.png
cornet-s,6,486,NaN,knife,knife,90,6086_ps_dnn_90_knife_10_n03041632_11773.png
cornet-s,6,487,NaN,bear,knife,90,6087_ps_dnn_90_knife_10_n03041632_27929.png
cornet-s,6,488,NaN,knife,knife,90,6088_ps_dnn_90_knife_10_n03041632_104379.png
cornet-s,6,489,NaN,cat,knife,90,6089_ps_dnn_90_knife_10_n03041632_39883.png
cornet-s,6,490,NaN,cat,knife,90,6090_ps_dnn_90_knife_10_n03041632_84240.png
cornet-s,6,491,NaN,keyboard,keyboard,90,6091_ps_dnn_90_keyboard_10_n03085013_21641.png
cornet-s,6,492,NaN,bottle,keyboard,90,6092_ps_dnn_90_keyboard_10_n04505470_4105.png
cornet-s,6,493,NaN,clock,keyboard,90,6093_ps_dnn_90_keyboard_10_n03085013_20673.png
cornet-s,6,494,NaN,elephant,keyboard,90,6094_ps_dnn_90_keyboard_10_n03085013_2300.png
cornet-s,6,495,NaN,knife,keyboard,90,6095_ps_dnn_90_keyboard_10_n03085013_21444.png
cornet-s,6,496,NaN,knife,keyboard,90,6096_ps_dnn_90_keyboard_10_n04505470_3947.png
cornet-s,6,497,NaN,knife,keyboard,90,6097_ps_dnn_90_keyboard_10_n03085013_4012.png
cornet-s,6,498,NaN,knife,keyboard,90,6098_ps_dnn_90_keyboard_10_n03085013_19611.png
cornet-s,6,499,NaN,knife,keyboard,90,6099_ps_dnn_90_keyboard_10_n03085013_23239.png
cornet-s,6,500,NaN,clock,keyboard,90,6100_ps_dnn_90_keyboard_10_n03085013_23118.png
cornet-s,6,501,NaN,elephant,elephant,90,6101_ps_dnn_90_elephant_10_n02504013_24486.png
cornet-s,6,502,NaN,elephant,elephant,90,6102_ps_dnn_90_elephant_10_n02504458_7221.png
cornet-s,6,503,NaN,boat,elephant,90,6103_ps_dnn_90_elephant_10_n02504458_908.png
cornet-s,6,504,NaN,elephant,elephant,90,6104_ps_dnn_90_elephant_10_n02504458_325.png
cornet-s,6,505,NaN,elephant,elephant,90,6105_ps_dnn_90_elephant_10_n02504458_1067.png
cornet-s,6,506,NaN,bicycle,elephant,90,6106_ps_dnn_90_elephant_10_n02504013_6376.png
cornet-s,6,507,NaN,elephant,elephant,90,6107_ps_dnn_90_elephant_10_n02504458_6132.png
cornet-s,6,508,NaN,bear,elephant,90,6108_ps_dnn_90_elephant_10_n02504458_8172.png
cornet-s,6,509,NaN,elephant,elephant,90,6109_ps_dnn_90_elephant_10_n02504458_3171.png
cornet-s,6,510,NaN,cat,elephant,90,6110_ps_dnn_90_elephant_10_n02504013_2498.png
cornet-s,6,511,NaN,bicycle,bicycle,90,6111_ps_dnn_90_bicycle_10_n03792782_12570.png
cornet-s,6,512,NaN,bicycle,bicycle,90,6112_ps_dnn_90_bicycle_10_n03792782_16819.png
cornet-s,6,513,NaN,bicycle,bicycle,90,6113_ps_dnn_90_bicycle_10_n03792782_13729.png
cornet-s,6,514,NaN,bicycle,bicycle,90,6114_ps_dnn_90_bicycle_10_n02835271_19565.png
cornet-s,6,515,NaN,bicycle,bicycle,90,6115_ps_dnn_90_bicycle_10_n02835271_20657.png
cornet-s,6,516,NaN,bicycle,bicycle,90,6116_ps_dnn_90_bicycle_10_n02835271_942.png
cornet-s,6,517,NaN,bicycle,bicycle,90,6117_ps_dnn_90_bicycle_10_n03792782_55401.png
cornet-s,6,518,NaN,bicycle,bicycle,90,6118_ps_dnn_90_bicycle_10_n02835271_2893.png
cornet-s,6,519,NaN,bicycle,bicycle,90,6119_ps_dnn_90_bicycle_10_n03792782_10547.png
cornet-s,6,520,NaN,bicycle,bicycle,90,6120_ps_dnn_90_bicycle_10_n03792782_3774.png
cornet-s,6,521,NaN,airplane,airplane,90,6121_ps_dnn_90_airplane_10_n02690373_13585.png
cornet-s,6,522,NaN,airplane,airplane,90,6122_ps_dnn_90_airplane_10_n02690373_4578.png
cornet-s,6,523,NaN,airplane,airplane,90,6123_ps_dnn_90_airplane_10_n02690373_18412.png
cornet-s,6,524,NaN,boat,airplane,90,6124_ps_dnn_90_airplane_10_n02690373_6665.png
cornet-s,6,525,NaN,airplane,airplane,90,6125_ps_dnn_90_airplane_10_n02690373_6223.png
cornet-s,6,526,NaN,knife,airplane,90,6126_ps_dnn_90_airplane_10_n02690373_5465.png
cornet-s,6,527,NaN,airplane,airplane,90,6127_ps_dnn_90_airplane_10_n02690373_349.png
cornet-s,6,528,NaN,airplane,airplane,90,6128_ps_dnn_90_airplane_10_n02690373_9335.png
cornet-s,6,529,NaN,airplane,airplane,90,6129_ps_dnn_90_airplane_10_n02690373_3383.png
cornet-s,6,530,NaN,airplane,airplane,90,6130_ps_dnn_90_airplane_10_n02690373_4070.png
cornet-s,6,531,NaN,clock,clock,90,6131_ps_dnn_90_clock_10_n04548280_8051.png
cornet-s,6,532,NaN,clock,clock,90,6132_ps_dnn_90_clock_10_n04548280_8646.png
cornet-s,6,533,NaN,clock,clock,90,6133_ps_dnn_90_clock_10_n04548280_22640.png
cornet-s,6,534,NaN,clock,clock,90,6134_ps_dnn_90_clock_10_n03196217_775.png
cornet-s,6,535,NaN,clock,clock,90,6135_ps_dnn_90_clock_10_n03196217_9160.png
cornet-s,6,536,NaN,clock,clock,90,6136_ps_dnn_90_clock_10_n02708093_616.png
cornet-s,6,537,NaN,clock,clock,90,6137_ps_dnn_90_clock_10_n04548280_17536.png
cornet-s,6,538,NaN,clock,clock,90,6138_ps_dnn_90_clock_10_n04548280_8170.png
cornet-s,6,539,NaN,clock,clock,90,6139_ps_dnn_90_clock_10_n03196217_1473.png
cornet-s,6,540,NaN,clock,clock,90,6140_ps_dnn_90_clock_10_n02708093_394.png
cornet-s,6,541,NaN,chair,oven,90,6141_ps_dnn_90_oven_10_n04111531_6609.png
cornet-s,6,542,NaN,cat,oven,90,6142_ps_dnn_90_oven_10_n04111531_15718.png
cornet-s,6,543,NaN,oven,oven,90,6143_ps_dnn_90_oven_10_n04111531_8910.png
cornet-s,6,544,NaN,chair,oven,90,6144_ps_dnn_90_oven_10_n04111531_18916.png
cornet-s,6,545,NaN,clock,oven,90,6145_ps_dnn_90_oven_10_n04111531_9915.png
cornet-s,6,546,NaN,bear,oven,90,6146_ps_dnn_90_oven_10_n04111531_9695.png
cornet-s,6,547,NaN,oven,oven,90,6147_ps_dnn_90_oven_10_n04111531_27.png
cornet-s,6,548,NaN,oven,oven,90,6148_ps_dnn_90_oven_10_n04111531_18648.png
cornet-s,6,549,NaN,bicycle,oven,90,6149_ps_dnn_90_oven_10_n04111531_2677.png
cornet-s,6,550,NaN,clock,oven,90,6150_ps_dnn_90_oven_10_n04111531_452.png
cornet-s,6,551,NaN,chair,chair,90,6151_ps_dnn_90_chair_10_n04099969_1028.png
cornet-s,6,552,NaN,knife,chair,90,6152_ps_dnn_90_chair_10_n04099969_24041.png
cornet-s,6,553,NaN,chair,chair,90,6153_ps_dnn_90_chair_10_n04429376_12354.png
cornet-s,6,554,NaN,chair,chair,90,6154_ps_dnn_90_chair_10_n04429376_30836.png
cornet-s,6,555,NaN,chair,chair,90,6155_ps_dnn_90_chair_10_n04099969_25322.png
cornet-s,6,556,NaN,chair,chair,90,6156_ps_dnn_90_chair_10_n03376595_7592.png
cornet-s,6,557,NaN,bicycle,chair,90,6157_ps_dnn_90_chair_10_n02791124_3436.png
cornet-s,6,558,NaN,chair,chair,90,6158_ps_dnn_90_chair_10_n04429376_17100.png
cornet-s,6,559,NaN,chair,chair,90,6159_ps_dnn_90_chair_10_n03376595_2848.png
cornet-s,6,560,NaN,chair,chair,90,6160_ps_dnn_90_chair_10_n03376595_2809.png
cornet-s,6,561,NaN,knife,bear,90,6161_ps_dnn_90_bear_10_n02133161_716.png
cornet-s,6,562,NaN,bear,bear,90,6162_ps_dnn_90_bear_10_n02134084_16745.png
cornet-s,6,563,NaN,bicycle,bear,90,6163_ps_dnn_90_bear_10_n02134418_625.png
cornet-s,6,564,NaN,bear,bear,90,6164_ps_dnn_90_bear_10_n02134418_3267.png
cornet-s,6,565,NaN,bear,bear,90,6165_ps_dnn_90_bear_10_n02132136_10134.png
cornet-s,6,566,NaN,bear,bear,90,6166_ps_dnn_90_bear_10_n02134418_236.png
cornet-s,6,567,NaN,bear,bear,90,6167_ps_dnn_90_bear_10_n02134084_16430.png
cornet-s,6,568,NaN,elephant,bear,90,6168_ps_dnn_90_bear_10_n02132136_1846.png
cornet-s,6,569,NaN,elephant,bear,90,6169_ps_dnn_90_bear_10_n02133161_215.png
cornet-s,6,570,NaN,boat,bear,90,6170_ps_dnn_90_bear_10_n02132136_1700.png
cornet-s,6,571,NaN,boat,boat,90,6171_ps_dnn_90_boat_10_n03344393_1657.png
cornet-s,6,572,NaN,boat,boat,90,6172_ps_dnn_90_boat_10_n02951358_12046.png
cornet-s,6,573,NaN,boat,boat,90,6173_ps_dnn_90_boat_10_n04612504_4302.png
cornet-s,6,574,NaN,cat,boat,90,6174_ps_dnn_90_boat_10_n03344393_8140.png
cornet-s,6,575,NaN,oven,boat,90,6175_ps_dnn_90_boat_10_n03344393_8597.png
cornet-s,6,576,NaN,boat,boat,90,6176_ps_dnn_90_boat_10_n04273569_22061.png
cornet-s,6,577,NaN,boat,boat,90,6177_ps_dnn_90_boat_10_n04612504_11079.png
cornet-s,6,578,NaN,clock,boat,90,6178_ps_dnn_90_boat_10_n03662601_29691.png
cornet-s,6,579,NaN,knife,boat,90,6179_ps_dnn_90_boat_10_n02951358_14846.png
cornet-s,6,580,NaN,boat,boat,90,6180_ps_dnn_90_boat_10_n02951358_13845.png
cornet-s,6,581,NaN,cat,cat,90,6181_ps_dnn_90_cat_10_n02123045_12755.png
cornet-s,6,582,NaN,cat,cat,90,6182_ps_dnn_90_cat_10_n02123045_13202.png
cornet-s,6,583,NaN,cat,cat,90,6183_ps_dnn_90_cat_10_n02123045_11035.png
cornet-s,6,584,NaN,bicycle,cat,90,6184_ps_dnn_90_cat_10_n02123045_9813.png
cornet-s,6,585,NaN,elephant,cat,90,6185_ps_dnn_90_cat_10_n02123597_5360.png
cornet-s,6,586,NaN,bottle,cat,90,6186_ps_dnn_90_cat_10_n02123394_2827.png
cornet-s,6,587,NaN,cat,cat,90,6187_ps_dnn_90_cat_10_n02123159_2804.png
cornet-s,6,588,NaN,cat,cat,90,6188_ps_dnn_90_cat_10_n02123159_649.png
cornet-s,6,589,NaN,cat,cat,90,6189_ps_dnn_90_cat_10_n02124075_7332.png
cornet-s,6,590,NaN,cat,cat,90,6190_ps_dnn_90_cat_10_n02123597_12554.png
cornet-s,6,591,NaN,bottle,bottle,90,6191_ps_dnn_90_bottle_10_n03983396_5913.png
cornet-s,6,592,NaN,boat,bottle,90,6192_ps_dnn_90_bottle_10_n04557648_757.png
cornet-s,6,593,NaN,bottle,bottle,90,6193_ps_dnn_90_bottle_10_n04591713_1594.png
cornet-s,6,594,NaN,clock,bottle,90,6194_ps_dnn_90_bottle_10_n02823428_6418.png
cornet-s,6,595,NaN,clock,bottle,90,6195_ps_dnn_90_bottle_10_n02823428_14205.png
cornet-s,6,596,NaN,bottle,bottle,90,6196_ps_dnn_90_bottle_10_n03937543_1746.png
cornet-s,6,597,NaN,clock,bottle,90,6197_ps_dnn_90_bottle_10_n04591713_5609.png
cornet-s,6,598,NaN,clock,bottle,90,6198_ps_dnn_90_bottle_10_n03937543_5677.png
cornet-s,6,599,NaN,bottle,bottle,90,6199_ps_dnn_90_bottle_10_n04591713_4078.png
cornet-s,6,600,NaN,bottle,bottle,90,6200_ps_dnn_90_bottle_10_n02823428_2918.png
cornet-s,6,601,NaN,truck,truck,90,6201_ps_dnn_90_truck_10_n03796401_3900.png
cornet-s,6,602,NaN,truck,truck,90,6202_ps_dnn_90_truck_10_n04467665_6830.png
cornet-s,6,603,NaN,truck,truck,90,6203_ps_dnn_90_truck_10_n03796401_7527.png
cornet-s,6,604,NaN,truck,truck,90,6204_ps_dnn_90_truck_10_n03796401_7519.png
cornet-s,6,605,NaN,boat,truck,90,6205_ps_dnn_90_truck_10_n03417042_3389.png
cornet-s,6,606,NaN,knife,truck,90,6206_ps_dnn_90_truck_10_n03796401_23547.png
cornet-s,6,607,NaN,truck,truck,90,6207_ps_dnn_90_truck_10_n04467665_53416.png
cornet-s,6,608,NaN,boat,truck,90,6208_ps_dnn_90_truck_10_n03796401_10576.png
cornet-s,6,609,NaN,truck,truck,90,6209_ps_dnn_90_truck_10_n04467665_10529.png
cornet-s,6,610,NaN,clock,truck,90,6210_ps_dnn_90_truck_10_n04467665_9266.png
cornet-s,6,611,NaN,bicycle,car,90,6211_ps_dnn_90_car_10_n04285008_11957.png
cornet-s,6,612,NaN,boat,car,90,6212_ps_dnn_90_car_10_n02814533_63116.png
cornet-s,6,613,NaN,bicycle,car,90,6213_ps_dnn_90_car_10_n04285008_9963.png
cornet-s,6,614,NaN,boat,car,90,6214_ps_dnn_90_car_10_n04285008_6527.png
cornet-s,6,615,NaN,bicycle,car,90,6215_ps_dnn_90_car_10_n04285008_5247.png
cornet-s,6,616,NaN,bicycle,car,90,6216_ps_dnn_90_car_10_n03100240_11224.png
cornet-s,6,617,NaN,bicycle,car,90,6217_ps_dnn_90_car_10_n02814533_34317.png
cornet-s,6,618,NaN,car,car,90,6218_ps_dnn_90_car_10_n02814533_9785.png
cornet-s,6,619,NaN,boat,car,90,6219_ps_dnn_90_car_10_n02814533_38454.png
cornet-s,6,620,NaN,boat,car,90,6220_ps_dnn_90_car_10_n02814533_4115.png
cornet-s,6,621,NaN,cat,bird,90,6221_ps_dnn_90_bird_10_n01532829_12842.png
cornet-s,6,622,NaN,elephant,bird,90,6222_ps_dnn_90_bird_10_n01817953_6289.png
cornet-s,6,623,NaN,elephant,bird,90,6223_ps_dnn_90_bird_10_n01622779_1667.png
cornet-s,6,624,NaN,bird,bird,90,6224_ps_dnn_90_bird_10_n01601694_12449.png
cornet-s,6,625,NaN,bear,bird,90,6225_ps_dnn_90_bird_10_n01820546_2367.png
cornet-s,6,626,NaN,bird,bird,90,6226_ps_dnn_90_bird_10_n02028035_6580.png
cornet-s,6,627,NaN,bear,bird,90,6227_ps_dnn_90_bird_10_n01820546_3799.png
cornet-s,6,628,NaN,bird,bird,90,6228_ps_dnn_90_bird_10_n01534433_13946.png
cornet-s,6,629,NaN,elephant,bird,90,6229_ps_dnn_90_bird_10_n01860187_946.png
cornet-s,6,630,NaN,bicycle,bird,90,6230_ps_dnn_90_bird_10_n01796340_1911.png
cornet-s,6,631,NaN,elephant,dog,90,6231_ps_dnn_90_dog_10_n02093647_5550.png
cornet-s,6,632,NaN,elephant,dog,90,6232_ps_dnn_90_dog_10_n02111277_408.png
cornet-s,6,633,NaN,elephant,dog,90,6233_ps_dnn_90_dog_10_n02096294_1121.png
cornet-s,6,634,NaN,elephant,dog,90,6234_ps_dnn_90_dog_10_n02090721_2220.png
cornet-s,6,635,NaN,cat,dog,90,6235_ps_dnn_90_dog_10_n02105162_5317.png
cornet-s,6,636,NaN,dog,dog,90,6236_ps_dnn_90_dog_10_n02097130_10857.png
cornet-s,6,637,NaN,elephant,dog,90,6237_ps_dnn_90_dog_10_n02092002_13565.png
cornet-s,6,638,NaN,boat,dog,90,6238_ps_dnn_90_dog_10_n02098286_2893.png
cornet-s,6,639,NaN,clock,dog,90,6239_ps_dnn_90_dog_10_n02102040_150.png
cornet-s,6,640,NaN,dog,dog,90,6240_ps_dnn_90_dog_10_n02110063_3862.png
cornet-s,6,641,NaN,elephant,knife,120,6241_ps_dnn_120_knife_10_n03041632_19971.png
cornet-s,6,642,NaN,knife,knife,120,6242_ps_dnn_120_knife_10_n03041632_34505.png
cornet-s,6,643,NaN,cat,knife,120,6243_ps_dnn_120_knife_10_n03041632_7064.png
cornet-s,6,644,NaN,cat,knife,120,6244_ps_dnn_120_knife_10_n03041632_11816.png
cornet-s,6,645,NaN,bicycle,knife,120,6245_ps_dnn_120_knife_10_n03041632_29886.png
cornet-s,6,646,NaN,knife,knife,120,6246_ps_dnn_120_knife_10_n03041632_7090.png
cornet-s,6,647,NaN,chair,knife,120,6247_ps_dnn_120_knife_10_n03041632_22570.png
cornet-s,6,648,NaN,knife,knife,120,6248_ps_dnn_120_knife_10_n03041632_18532.png
cornet-s,6,649,NaN,knife,knife,120,6249_ps_dnn_120_knife_10_n03041632_51617.png
cornet-s,6,650,NaN,knife,knife,120,6250_ps_dnn_120_knife_10_n03041632_54732.png
cornet-s,6,651,NaN,cat,keyboard,120,6251_ps_dnn_120_keyboard_10_n04505470_1229.png
cornet-s,6,652,NaN,dog,keyboard,120,6252_ps_dnn_120_keyboard_10_n04505470_1724.png
cornet-s,6,653,NaN,knife,keyboard,120,6253_ps_dnn_120_keyboard_10_n03085013_30544.png
cornet-s,6,654,NaN,bicycle,keyboard,120,6254_ps_dnn_120_keyboard_10_n03085013_24633.png
cornet-s,6,655,NaN,chair,keyboard,120,6255_ps_dnn_120_keyboard_10_n04505470_8575.png
cornet-s,6,656,NaN,knife,keyboard,120,6256_ps_dnn_120_keyboard_10_n03085013_24336.png
cornet-s,6,657,NaN,knife,keyboard,120,6257_ps_dnn_120_keyboard_10_n04505470_4490.png
cornet-s,6,658,NaN,bear,keyboard,120,6258_ps_dnn_120_keyboard_10_n04505470_3193.png
cornet-s,6,659,NaN,knife,keyboard,120,6259_ps_dnn_120_keyboard_10_n03085013_20999.png
cornet-s,6,660,NaN,knife,keyboard,120,6260_ps_dnn_120_keyboard_10_n03085013_20379.png
cornet-s,6,661,NaN,elephant,elephant,120,6261_ps_dnn_120_elephant_10_n02504458_3533.png
cornet-s,6,662,NaN,boat,elephant,120,6262_ps_dnn_120_elephant_10_n02504013_6549.png
cornet-s,6,663,NaN,bicycle,elephant,120,6263_ps_dnn_120_elephant_10_n02504013_7309.png
cornet-s,6,664,NaN,oven,elephant,120,6264_ps_dnn_120_elephant_10_n02504458_10661.png
cornet-s,6,665,NaN,cat,elephant,120,6265_ps_dnn_120_elephant_10_n02504013_6615.png
cornet-s,6,666,NaN,elephant,elephant,120,6266_ps_dnn_120_elephant_10_n02504013_9476.png
cornet-s,6,667,NaN,bear,elephant,120,6267_ps_dnn_120_elephant_10_n02504458_2324.png
cornet-s,6,668,NaN,bicycle,elephant,120,6268_ps_dnn_120_elephant_10_n02504013_7217.png
cornet-s,6,669,NaN,elephant,elephant,120,6269_ps_dnn_120_elephant_10_n02504013_3169.png
cornet-s,6,670,NaN,bear,elephant,120,6270_ps_dnn_120_elephant_10_n02504458_98.png
cornet-s,6,671,NaN,knife,bicycle,120,6271_ps_dnn_120_bicycle_10_n03792782_11404.png
cornet-s,6,672,NaN,bicycle,bicycle,120,6272_ps_dnn_120_bicycle_10_n02835271_5956.png
cornet-s,6,673,NaN,knife,bicycle,120,6273_ps_dnn_120_bicycle_10_n02835271_19853.png
cornet-s,6,674,NaN,elephant,bicycle,120,6274_ps_dnn_120_bicycle_10_n03792782_4522.png
cornet-s,6,675,NaN,bicycle,bicycle,120,6275_ps_dnn_120_bicycle_10_n02835271_1505.png
cornet-s,6,676,NaN,chair,bicycle,120,6276_ps_dnn_120_bicycle_10_n02835271_1141.png
cornet-s,6,677,NaN,bicycle,bicycle,120,6277_ps_dnn_120_bicycle_10_n02835271_4964.png
cornet-s,6,678,NaN,dog,bicycle,120,6278_ps_dnn_120_bicycle_10_n03792782_24763.png
cornet-s,6,679,NaN,bicycle,bicycle,120,6279_ps_dnn_120_bicycle_10_n03792782_3467.png
cornet-s,6,680,NaN,chair,bicycle,120,6280_ps_dnn_120_bicycle_10_n03792782_9991.png
cornet-s,6,681,NaN,boat,airplane,120,6281_ps_dnn_120_airplane_10_n02690373_19646.png
cornet-s,6,682,NaN,airplane,airplane,120,6282_ps_dnn_120_airplane_10_n02690373_3993.png
cornet-s,6,683,NaN,bird,airplane,120,6283_ps_dnn_120_airplane_10_n02690373_4586.png
cornet-s,6,684,NaN,cat,airplane,120,6284_ps_dnn_120_airplane_10_n02690373_3912.png
cornet-s,6,685,NaN,knife,airplane,120,6285_ps_dnn_120_airplane_10_n02690373_18468.png
cornet-s,6,686,NaN,knife,airplane,120,6286_ps_dnn_120_airplane_10_n02690373_1171.png
cornet-s,6,687,NaN,knife,airplane,120,6287_ps_dnn_120_airplane_10_n02690373_11799.png
cornet-s,6,688,NaN,knife,airplane,120,6288_ps_dnn_120_airplane_10_n02690373_6468.png
cornet-s,6,689,NaN,boat,airplane,120,6289_ps_dnn_120_airplane_10_n02690373_8765.png
cornet-s,6,690,NaN,airplane,airplane,120,6290_ps_dnn_120_airplane_10_n02690373_2092.png
cornet-s,6,691,NaN,clock,clock,120,6291_ps_dnn_120_clock_10_n04548280_1304.png
cornet-s,6,692,NaN,cat,clock,120,6292_ps_dnn_120_clock_10_n03196217_3063.png
cornet-s,6,693,NaN,cat,clock,120,6293_ps_dnn_120_clock_10_n03196217_5258.png
cornet-s,6,694,NaN,clock,clock,120,6294_ps_dnn_120_clock_10_n04548280_3412.png
cornet-s,6,695,NaN,knife,clock,120,6295_ps_dnn_120_clock_10_n03196217_1603.png
cornet-s,6,696,NaN,knife,clock,120,6296_ps_dnn_120_clock_10_n03196217_8509.png
cornet-s,6,697,NaN,bottle,clock,120,6297_ps_dnn_120_clock_10_n04548280_3208.png
cornet-s,6,698,NaN,bear,clock,120,6298_ps_dnn_120_clock_10_n04548280_4561.png
cornet-s,6,699,NaN,knife,clock,120,6299_ps_dnn_120_clock_10_n02708093_7475.png
cornet-s,6,700,NaN,oven,clock,120,6300_ps_dnn_120_clock_10_n03196217_8638.png
cornet-s,6,701,NaN,clock,oven,120,6301_ps_dnn_120_oven_10_n04111531_4585.png
cornet-s,6,702,NaN,oven,oven,120,6302_ps_dnn_120_oven_10_n04111531_1847.png
cornet-s,6,703,NaN,bear,oven,120,6303_ps_dnn_120_oven_10_n04111531_5519.png
cornet-s,6,704,NaN,bicycle,oven,120,6304_ps_dnn_120_oven_10_n04111531_5906.png
cornet-s,6,705,NaN,bicycle,oven,120,6305_ps_dnn_120_oven_10_n04111531_4467.png
cornet-s,6,706,NaN,cat,oven,120,6306_ps_dnn_120_oven_10_n04111531_4879.png
cornet-s,6,707,NaN,bicycle,oven,120,6307_ps_dnn_120_oven_10_n04111531_2199.png
cornet-s,6,708,NaN,bicycle,oven,120,6308_ps_dnn_120_oven_10_n04111531_18592.png
cornet-s,6,709,NaN,cat,oven,120,6309_ps_dnn_120_oven_10_n04111531_21980.png
cornet-s,6,710,NaN,bicycle,oven,120,6310_ps_dnn_120_oven_10_n04111531_4749.png
cornet-s,6,711,NaN,knife,chair,120,6311_ps_dnn_120_chair_10_n04429376_52822.png
cornet-s,6,712,NaN,bicycle,chair,120,6312_ps_dnn_120_chair_10_n02791124_1935.png
cornet-s,6,713,NaN,knife,chair,120,6313_ps_dnn_120_chair_10_n03376595_1391.png
cornet-s,6,714,NaN,knife,chair,120,6314_ps_dnn_120_chair_10_n04099969_20797.png
cornet-s,6,715,NaN,cat,chair,120,6315_ps_dnn_120_chair_10_n03376595_2729.png
cornet-s,6,716,NaN,dog,chair,120,6316_ps_dnn_120_chair_10_n04429376_4167.png
cornet-s,6,717,NaN,knife,chair,120,6317_ps_dnn_120_chair_10_n03376595_7479.png
cornet-s,6,718,NaN,knife,chair,120,6318_ps_dnn_120_chair_10_n04099969_1717.png
cornet-s,6,719,NaN,bear,chair,120,6319_ps_dnn_120_chair_10_n04099969_17069.png
cornet-s,6,720,NaN,knife,chair,120,6320_ps_dnn_120_chair_10_n04099969_9217.png
cornet-s,6,721,NaN,knife,bear,120,6321_ps_dnn_120_bear_10_n02132136_29146.png
cornet-s,6,722,NaN,knife,bear,120,6322_ps_dnn_120_bear_10_n02134084_617.png
cornet-s,6,723,NaN,cat,bear,120,6323_ps_dnn_120_bear_10_n02132136_19755.png
cornet-s,6,724,NaN,elephant,bear,120,6324_ps_dnn_120_bear_10_n02134084_4557.png
cornet-s,6,725,NaN,chair,bear,120,6325_ps_dnn_120_bear_10_n02134418_2427.png
cornet-s,6,726,NaN,dog,bear,120,6326_ps_dnn_120_bear_10_n02133161_195.png
cornet-s,6,727,NaN,elephant,bear,120,6327_ps_dnn_120_bear_10_n02132136_1624.png
cornet-s,6,728,NaN,knife,bear,120,6328_ps_dnn_120_bear_10_n02133161_644.png
cornet-s,6,729,NaN,cat,bear,120,6329_ps_dnn_120_bear_10_n02134418_13814.png
cornet-s,6,730,NaN,elephant,bear,120,6330_ps_dnn_120_bear_10_n02132136_8017.png
cornet-s,6,731,NaN,cat,boat,120,6331_ps_dnn_120_boat_10_n03662601_28792.png
cornet-s,6,732,NaN,dog,boat,120,6332_ps_dnn_120_boat_10_n03662601_9178.png
cornet-s,6,733,NaN,boat,boat,120,6333_ps_dnn_120_boat_10_n03344393_6103.png
cornet-s,6,734,NaN,boat,boat,120,6334_ps_dnn_120_boat_10_n03344393_10343.png
cornet-s,6,735,NaN,boat,boat,120,6335_ps_dnn_120_boat_10_n04273569_4121.png
cornet-s,6,736,NaN,knife,boat,120,6336_ps_dnn_120_boat_10_n03662601_13326.png
cornet-s,6,737,NaN,boat,boat,120,6337_ps_dnn_120_boat_10_n04612504_6991.png
cornet-s,6,738,NaN,knife,boat,120,6338_ps_dnn_120_boat_10_n03662601_17617.png
cornet-s,6,739,NaN,knife,boat,120,6339_ps_dnn_120_boat_10_n04612504_12456.png
cornet-s,6,740,NaN,boat,boat,120,6340_ps_dnn_120_boat_10_n04612504_27132.png
cornet-s,6,741,NaN,knife,cat,120,6341_ps_dnn_120_cat_10_n02124075_9352.png
cornet-s,6,742,NaN,cat,cat,120,6342_ps_dnn_120_cat_10_n02123045_5200.png
cornet-s,6,743,NaN,cat,cat,120,6343_ps_dnn_120_cat_10_n02123045_4272.png
cornet-s,6,744,NaN,cat,cat,120,6344_ps_dnn_120_cat_10_n02123159_4590.png
cornet-s,6,745,NaN,cat,cat,120,6345_ps_dnn_120_cat_10_n02123159_7996.png
cornet-s,6,746,NaN,cat,cat,120,6346_ps_dnn_120_cat_10_n02123394_5402.png
cornet-s,6,747,NaN,bird,cat,120,6347_ps_dnn_120_cat_10_n02123394_7871.png
cornet-s,6,748,NaN,bird,cat,120,6348_ps_dnn_120_cat_10_n02123159_1619.png
cornet-s,6,749,NaN,cat,cat,120,6349_ps_dnn_120_cat_10_n02124075_9894.png
cornet-s,6,750,NaN,knife,cat,120,6350_ps_dnn_120_cat_10_n02123394_3110.png
cornet-s,6,751,NaN,bear,bottle,120,6351_ps_dnn_120_bottle_10_n04591713_5473.png
cornet-s,6,752,NaN,bear,bottle,120,6352_ps_dnn_120_bottle_10_n04557648_11941.png
cornet-s,6,753,NaN,knife,bottle,120,6353_ps_dnn_120_bottle_10_n04560804_9692.png
cornet-s,6,754,NaN,boat,bottle,120,6354_ps_dnn_120_bottle_10_n04557648_8444.png
cornet-s,6,755,NaN,elephant,bottle,120,6355_ps_dnn_120_bottle_10_n04557648_10510.png
cornet-s,6,756,NaN,knife,bottle,120,6356_ps_dnn_120_bottle_10_n04557648_3320.png
cornet-s,6,757,NaN,chair,bottle,120,6357_ps_dnn_120_bottle_10_n04579145_3267.png
cornet-s,6,758,NaN,cat,bottle,120,6358_ps_dnn_120_bottle_10_n04591713_14205.png
cornet-s,6,759,NaN,knife,bottle,120,6359_ps_dnn_120_bottle_10_n03937543_282.png
cornet-s,6,760,NaN,dog,bottle,120,6360_ps_dnn_120_bottle_10_n04591713_18281.png
cornet-s,6,761,NaN,bear,truck,120,6361_ps_dnn_120_truck_10_n03796401_5043.png
cornet-s,6,762,NaN,cat,truck,120,6362_ps_dnn_120_truck_10_n03417042_5852.png
cornet-s,6,763,NaN,oven,truck,120,6363_ps_dnn_120_truck_10_n04467665_54791.png
cornet-s,6,764,NaN,oven,truck,120,6364_ps_dnn_120_truck_10_n04467665_37261.png
cornet-s,6,765,NaN,dog,truck,120,6365_ps_dnn_120_truck_10_n03417042_21727.png
cornet-s,6,766,NaN,cat,truck,120,6366_ps_dnn_120_truck_10_n03417042_4613.png
cornet-s,6,767,NaN,knife,truck,120,6367_ps_dnn_120_truck_10_n04467665_1408.png
cornet-s,6,768,NaN,bicycle,truck,120,6368_ps_dnn_120_truck_10_n04467665_44771.png
cornet-s,6,769,NaN,clock,truck,120,6369_ps_dnn_120_truck_10_n03417042_29267.png
cornet-s,6,770,NaN,bear,truck,120,6370_ps_dnn_120_truck_10_n03796401_18333.png
cornet-s,6,771,NaN,oven,car,120,6371_ps_dnn_120_car_10_n02814533_59447.png
cornet-s,6,772,NaN,boat,car,120,6372_ps_dnn_120_car_10_n04285008_10825.png
cornet-s,6,773,NaN,cat,car,120,6373_ps_dnn_120_car_10_n03100240_15778.png
cornet-s,6,774,NaN,bicycle,car,120,6374_ps_dnn_120_car_10_n02814533_54543.png
cornet-s,6,775,NaN,bicycle,car,120,6375_ps_dnn_120_car_10_n03100240_13359.png
cornet-s,6,776,NaN,knife,car,120,6376_ps_dnn_120_car_10_n03100240_8401.png
cornet-s,6,777,NaN,boat,car,120,6377_ps_dnn_120_car_10_n04285008_88.png
cornet-s,6,778,NaN,boat,car,120,6378_ps_dnn_120_car_10_n02814533_77080.png
cornet-s,6,779,NaN,elephant,car,120,6379_ps_dnn_120_car_10_n04285008_3882.png
cornet-s,6,780,NaN,boat,car,120,6380_ps_dnn_120_car_10_n04285008_5699.png
cornet-s,6,781,NaN,bicycle,bird,120,6381_ps_dnn_120_bird_10_n01601694_5227.png
cornet-s,6,782,NaN,elephant,bird,120,6382_ps_dnn_120_bird_10_n01514859_19812.png
cornet-s,6,783,NaN,cat,bird,120,6383_ps_dnn_120_bird_10_n01833805_8692.png
cornet-s,6,784,NaN,bicycle,bird,120,6384_ps_dnn_120_bird_10_n01860187_34328.png
cornet-s,6,785,NaN,bear,bird,120,6385_ps_dnn_120_bird_10_n01817953_7424.png
cornet-s,6,786,NaN,bear,bird,120,6386_ps_dnn_120_bird_10_n01798484_7263.png
cornet-s,6,787,NaN,cat,bird,120,6387_ps_dnn_120_bird_10_n01818515_10482.png
cornet-s,6,788,NaN,cat,bird,120,6388_ps_dnn_120_bird_10_n01534433_6069.png
cornet-s,6,789,NaN,cat,bird,120,6389_ps_dnn_120_bird_10_n01833805_291.png
cornet-s,6,790,NaN,boat,bird,120,6390_ps_dnn_120_bird_10_n02018207_3808.png
cornet-s,6,791,NaN,knife,dog,120,6391_ps_dnn_120_dog_10_n02091032_12122.png
cornet-s,6,792,NaN,bird,dog,120,6392_ps_dnn_120_dog_10_n02113799_6367.png
cornet-s,6,793,NaN,bear,dog,120,6393_ps_dnn_120_dog_10_n02093256_48295.png
cornet-s,6,794,NaN,knife,dog,120,6394_ps_dnn_120_dog_10_n02090379_8651.png
cornet-s,6,795,NaN,bear,dog,120,6395_ps_dnn_120_dog_10_n02104365_10602.png
cornet-s,6,796,NaN,knife,dog,120,6396_ps_dnn_120_dog_10_n02093991_9013.png
cornet-s,6,797,NaN,oven,dog,120,6397_ps_dnn_120_dog_10_n02110063_8745.png
cornet-s,6,798,NaN,elephant,dog,120,6398_ps_dnn_120_dog_10_n02093256_718.png
cornet-s,6,799,NaN,bear,dog,120,6399_ps_dnn_120_dog_10_n02110806_23967.png
cornet-s,6,800,NaN,bird,dog,120,6400_ps_dnn_120_dog_10_n02088466_11443.png
cornet-s,6,801,NaN,knife,knife,150,6401_ps_dnn_150_knife_10_n03041632_7279.png
cornet-s,6,802,NaN,clock,knife,150,6402_ps_dnn_150_knife_10_n03041632_5640.png
cornet-s,6,803,NaN,knife,knife,150,6403_ps_dnn_150_knife_10_n03041632_2386.png
cornet-s,6,804,NaN,knife,knife,150,6404_ps_dnn_150_knife_10_n03041632_28202.png
cornet-s,6,805,NaN,knife,knife,150,6405_ps_dnn_150_knife_10_n03041632_6309.png
cornet-s,6,806,NaN,knife,knife,150,6406_ps_dnn_150_knife_10_n03041632_49163.png
cornet-s,6,807,NaN,knife,knife,150,6407_ps_dnn_150_knife_10_n03041632_2058.png
cornet-s,6,808,NaN,knife,knife,150,6408_ps_dnn_150_knife_10_n03041632_5820.png
cornet-s,6,809,NaN,elephant,knife,150,6409_ps_dnn_150_knife_10_n03041632_50034.png
cornet-s,6,810,NaN,elephant,knife,150,6410_ps_dnn_150_knife_10_n03041632_2973.png
cornet-s,6,811,NaN,cat,keyboard,150,6411_ps_dnn_150_keyboard_10_n03085013_26164.png
cornet-s,6,812,NaN,cat,keyboard,150,6412_ps_dnn_150_keyboard_10_n04505470_5057.png
cornet-s,6,813,NaN,chair,keyboard,150,6413_ps_dnn_150_keyboard_10_n03085013_5738.png
cornet-s,6,814,NaN,knife,keyboard,150,6414_ps_dnn_150_keyboard_10_n03085013_20388.png
cornet-s,6,815,NaN,knife,keyboard,150,6415_ps_dnn_150_keyboard_10_n03085013_2362.png
cornet-s,6,816,NaN,clock,keyboard,150,6416_ps_dnn_150_keyboard_10_n03085013_19065.png
cornet-s,6,817,NaN,knife,keyboard,150,6417_ps_dnn_150_keyboard_10_n03085013_18830.png
cornet-s,6,818,NaN,cat,keyboard,150,6418_ps_dnn_150_keyboard_10_n04505470_5152.png
cornet-s,6,819,NaN,knife,keyboard,150,6419_ps_dnn_150_keyboard_10_n03085013_5819.png
cornet-s,6,820,NaN,bird,keyboard,150,6420_ps_dnn_150_keyboard_10_n04505470_4366.png
cornet-s,6,821,NaN,knife,elephant,150,6421_ps_dnn_150_elephant_10_n02504458_3228.png
cornet-s,6,822,NaN,knife,elephant,150,6422_ps_dnn_150_elephant_10_n02504458_3777.png
cornet-s,6,823,NaN,cat,elephant,150,6423_ps_dnn_150_elephant_10_n02504013_1187.png
cornet-s,6,824,NaN,knife,elephant,150,6424_ps_dnn_150_elephant_10_n02504458_1661.png
cornet-s,6,825,NaN,knife,elephant,150,6425_ps_dnn_150_elephant_10_n02504013_295.png
cornet-s,6,826,NaN,dog,elephant,150,6426_ps_dnn_150_elephant_10_n02504013_8614.png
cornet-s,6,827,NaN,chair,elephant,150,6427_ps_dnn_150_elephant_10_n02504458_3114.png
cornet-s,6,828,NaN,bear,elephant,150,6428_ps_dnn_150_elephant_10_n02504013_522.png
cornet-s,6,829,NaN,knife,elephant,150,6429_ps_dnn_150_elephant_10_n02504013_4139.png
cornet-s,6,830,NaN,bear,elephant,150,6430_ps_dnn_150_elephant_10_n02504458_1863.png
cornet-s,6,831,NaN,knife,bicycle,150,6431_ps_dnn_150_bicycle_10_n02835271_10754.png
cornet-s,6,832,NaN,elephant,bicycle,150,6432_ps_dnn_150_bicycle_10_n02835271_8017.png
cornet-s,6,833,NaN,dog,bicycle,150,6433_ps_dnn_150_bicycle_10_n03792782_126.png
cornet-s,6,834,NaN,boat,bicycle,150,6434_ps_dnn_150_bicycle_10_n02835271_19552.png
cornet-s,6,835,NaN,knife,bicycle,150,6435_ps_dnn_150_bicycle_10_n03792782_5102.png
cornet-s,6,836,NaN,bear,bicycle,150,6436_ps_dnn_150_bicycle_10_n02835271_8975.png
cornet-s,6,837,NaN,knife,bicycle,150,6437_ps_dnn_150_bicycle_10_n03792782_25701.png
cornet-s,6,838,NaN,knife,bicycle,150,6438_ps_dnn_150_bicycle_10_n03792782_76556.png
cornet-s,6,839,NaN,knife,bicycle,150,6439_ps_dnn_150_bicycle_10_n02835271_3812.png
cornet-s,6,840,NaN,knife,bicycle,150,6440_ps_dnn_150_bicycle_10_n02835271_25109.png
cornet-s,6,841,NaN,knife,airplane,150,6441_ps_dnn_150_airplane_10_n02690373_6988.png
cornet-s,6,842,NaN,knife,airplane,150,6442_ps_dnn_150_airplane_10_n02690373_166.png
cornet-s,6,843,NaN,knife,airplane,150,6443_ps_dnn_150_airplane_10_n02690373_19749.png
cornet-s,6,844,NaN,knife,airplane,150,6444_ps_dnn_150_airplane_10_n02690373_5277.png
cornet-s,6,845,NaN,knife,airplane,150,6445_ps_dnn_150_airplane_10_n02690373_9720.png
cornet-s,6,846,NaN,knife,airplane,150,6446_ps_dnn_150_airplane_10_n02690373_8666.png
cornet-s,6,847,NaN,cat,airplane,150,6447_ps_dnn_150_airplane_10_n02690373_2800.png
cornet-s,6,848,NaN,knife,airplane,150,6448_ps_dnn_150_airplane_10_n02690373_2095.png
cornet-s,6,849,NaN,knife,airplane,150,6449_ps_dnn_150_airplane_10_n02690373_599.png
cornet-s,6,850,NaN,knife,airplane,150,6450_ps_dnn_150_airplane_10_n02690373_5164.png
cornet-s,6,851,NaN,bear,clock,150,6451_ps_dnn_150_clock_10_n02708093_6558.png
cornet-s,6,852,NaN,clock,clock,150,6452_ps_dnn_150_clock_10_n03196217_2575.png
cornet-s,6,853,NaN,cat,clock,150,6453_ps_dnn_150_clock_10_n03196217_6026.png
cornet-s,6,854,NaN,dog,clock,150,6454_ps_dnn_150_clock_10_n03196217_6083.png
cornet-s,6,855,NaN,elephant,clock,150,6455_ps_dnn_150_clock_10_n02708093_2318.png
cornet-s,6,856,NaN,cat,clock,150,6456_ps_dnn_150_clock_10_n02708093_3062.png
cornet-s,6,857,NaN,elephant,clock,150,6457_ps_dnn_150_clock_10_n02708093_1673.png
cornet-s,6,858,NaN,elephant,clock,150,6458_ps_dnn_150_clock_10_n04548280_199.png
cornet-s,6,859,NaN,bird,clock,150,6459_ps_dnn_150_clock_10_n03196217_3333.png
cornet-s,6,860,NaN,knife,clock,150,6460_ps_dnn_150_clock_10_n04548280_3799.png
cornet-s,6,861,NaN,knife,oven,150,6461_ps_dnn_150_oven_10_n04111531_1482.png
cornet-s,6,862,NaN,bear,oven,150,6462_ps_dnn_150_oven_10_n04111531_15683.png
cornet-s,6,863,NaN,knife,oven,150,6463_ps_dnn_150_oven_10_n04111531_6084.png
cornet-s,6,864,NaN,cat,oven,150,6464_ps_dnn_150_oven_10_n04111531_5965.png
cornet-s,6,865,NaN,cat,oven,150,6465_ps_dnn_150_oven_10_n04111531_7097.png
cornet-s,6,866,NaN,knife,oven,150,6466_ps_dnn_150_oven_10_n04111531_22138.png
cornet-s,6,867,NaN,cat,oven,150,6467_ps_dnn_150_oven_10_n04111531_2643.png
cornet-s,6,868,NaN,clock,oven,150,6468_ps_dnn_150_oven_10_n04111531_1220.png
cornet-s,6,869,NaN,cat,oven,150,6469_ps_dnn_150_oven_10_n04111531_14488.png
cornet-s,6,870,NaN,dog,oven,150,6470_ps_dnn_150_oven_10_n04111531_774.png
cornet-s,6,871,NaN,knife,chair,150,6471_ps_dnn_150_chair_10_n03376595_3912.png
cornet-s,6,872,NaN,cat,chair,150,6472_ps_dnn_150_chair_10_n04429376_33792.png
cornet-s,6,873,NaN,knife,chair,150,6473_ps_dnn_150_chair_10_n04099969_7577.png
cornet-s,6,874,NaN,bear,chair,150,6474_ps_dnn_150_chair_10_n03376595_196.png
cornet-s,6,875,NaN,cat,chair,150,6475_ps_dnn_150_chair_10_n03376595_6724.png
cornet-s,6,876,NaN,knife,chair,150,6476_ps_dnn_150_chair_10_n04429376_22107.png
cornet-s,6,877,NaN,cat,chair,150,6477_ps_dnn_150_chair_10_n04099969_2056.png
cornet-s,6,878,NaN,knife,chair,150,6478_ps_dnn_150_chair_10_n03376595_8229.png
cornet-s,6,879,NaN,bicycle,chair,150,6479_ps_dnn_150_chair_10_n03376595_7262.png
cornet-s,6,880,NaN,knife,chair,150,6480_ps_dnn_150_chair_10_n03376595_5995.png
cornet-s,6,881,NaN,knife,bear,150,6481_ps_dnn_150_bear_10_n02134418_11746.png
cornet-s,6,882,NaN,knife,bear,150,6482_ps_dnn_150_bear_10_n02132136_5967.png
cornet-s,6,883,NaN,dog,bear,150,6483_ps_dnn_150_bear_10_n02132136_13018.png
cornet-s,6,884,NaN,knife,bear,150,6484_ps_dnn_150_bear_10_n02133161_6458.png
cornet-s,6,885,NaN,knife,bear,150,6485_ps_dnn_150_bear_10_n02134084_8344.png
cornet-s,6,886,NaN,knife,bear,150,6486_ps_dnn_150_bear_10_n02134084_24354.png
cornet-s,6,887,NaN,elephant,bear,150,6487_ps_dnn_150_bear_10_n02134418_7475.png
cornet-s,6,888,NaN,boat,bear,150,6488_ps_dnn_150_bear_10_n02134084_389.png
cornet-s,6,889,NaN,knife,bear,150,6489_ps_dnn_150_bear_10_n02133161_12869.png
cornet-s,6,890,NaN,bear,bear,150,6490_ps_dnn_150_bear_10_n02134084_18101.png
cornet-s,6,891,NaN,cat,boat,150,6491_ps_dnn_150_boat_10_n03344393_9927.png
cornet-s,6,892,NaN,cat,boat,150,6492_ps_dnn_150_boat_10_n03344393_2843.png
cornet-s,6,893,NaN,knife,boat,150,6493_ps_dnn_150_boat_10_n03344393_2587.png
cornet-s,6,894,NaN,knife,boat,150,6494_ps_dnn_150_boat_10_n04612504_1869.png
cornet-s,6,895,NaN,knife,boat,150,6495_ps_dnn_150_boat_10_n02951358_35500.png
cornet-s,6,896,NaN,bicycle,boat,150,6496_ps_dnn_150_boat_10_n03662601_37095.png
cornet-s,6,897,NaN,knife,boat,150,6497_ps_dnn_150_boat_10_n03344393_7497.png
cornet-s,6,898,NaN,knife,boat,150,6498_ps_dnn_150_boat_10_n03662601_6111.png
cornet-s,6,899,NaN,knife,boat,150,6499_ps_dnn_150_boat_10_n04273569_24211.png
cornet-s,6,900,NaN,knife,boat,150,6500_ps_dnn_150_boat_10_n03662601_10409.png
cornet-s,6,901,NaN,knife,cat,150,6501_ps_dnn_150_cat_10_n02123045_15990.png
cornet-s,6,902,NaN,knife,cat,150,6502_ps_dnn_150_cat_10_n02124075_10750.png
cornet-s,6,903,NaN,knife,cat,150,6503_ps_dnn_150_cat_10_n02123597_9982.png
cornet-s,6,904,NaN,knife,cat,150,6504_ps_dnn_150_cat_10_n02123597_11128.png
cornet-s,6,905,NaN,knife,cat,150,6505_ps_dnn_150_cat_10_n02125311_21897.png
cornet-s,6,906,NaN,knife,cat,150,6506_ps_dnn_150_cat_10_n02124075_12467.png
cornet-s,6,907,NaN,knife,cat,150,6507_ps_dnn_150_cat_10_n02123394_7078.png
cornet-s,6,908,NaN,dog,cat,150,6508_ps_dnn_150_cat_10_n02124075_14800.png
cornet-s,6,909,NaN,cat,cat,150,6509_ps_dnn_150_cat_10_n02123597_1422.png
cornet-s,6,910,NaN,knife,cat,150,6510_ps_dnn_150_cat_10_n02123159_7607.png
cornet-s,6,911,NaN,knife,bottle,150,6511_ps_dnn_150_bottle_10_n04560804_4145.png
cornet-s,6,912,NaN,knife,bottle,150,6512_ps_dnn_150_bottle_10_n04557648_4072.png
cornet-s,6,913,NaN,bicycle,bottle,150,6513_ps_dnn_150_bottle_10_n03983396_12013.png
cornet-s,6,914,NaN,dog,bottle,150,6514_ps_dnn_150_bottle_10_n04591713_2957.png
cornet-s,6,915,NaN,knife,bottle,150,6515_ps_dnn_150_bottle_10_n04560804_28662.png
cornet-s,6,916,NaN,cat,bottle,150,6516_ps_dnn_150_bottle_10_n04560804_12278.png
cornet-s,6,917,NaN,knife,bottle,150,6517_ps_dnn_150_bottle_10_n04557648_7649.png
cornet-s,6,918,NaN,knife,bottle,150,6518_ps_dnn_150_bottle_10_n04579145_2367.png
cornet-s,6,919,NaN,bear,bottle,150,6519_ps_dnn_150_bottle_10_n03937543_243.png
cornet-s,6,920,NaN,knife,bottle,150,6520_ps_dnn_150_bottle_10_n04591713_4064.png
cornet-s,6,921,NaN,knife,truck,150,6521_ps_dnn_150_truck_10_n04467665_69892.png
cornet-s,6,922,NaN,cat,truck,150,6522_ps_dnn_150_truck_10_n03417042_4879.png
cornet-s,6,923,NaN,cat,truck,150,6523_ps_dnn_150_truck_10_n03417042_7977.png
cornet-s,6,924,NaN,knife,truck,150,6524_ps_dnn_150_truck_10_n03796401_5263.png
cornet-s,6,925,NaN,cat,truck,150,6525_ps_dnn_150_truck_10_n04467665_43858.png
cornet-s,6,926,NaN,knife,truck,150,6526_ps_dnn_150_truck_10_n04467665_66680.png
cornet-s,6,927,NaN,knife,truck,150,6527_ps_dnn_150_truck_10_n04467665_73773.png
cornet-s,6,928,NaN,knife,truck,150,6528_ps_dnn_150_truck_10_n03417042_5307.png
cornet-s,6,929,NaN,cat,truck,150,6529_ps_dnn_150_truck_10_n03796401_3695.png
cornet-s,6,930,NaN,cat,truck,150,6530_ps_dnn_150_truck_10_n04467665_58131.png
cornet-s,6,931,NaN,knife,car,150,6531_ps_dnn_150_car_10_n02814533_59264.png
cornet-s,6,932,NaN,knife,car,150,6532_ps_dnn_150_car_10_n04285008_61.png
cornet-s,6,933,NaN,knife,car,150,6533_ps_dnn_150_car_10_n02814533_38904.png
cornet-s,6,934,NaN,knife,car,150,6534_ps_dnn_150_car_10_n03100240_22236.png
cornet-s,6,935,NaN,bear,car,150,6535_ps_dnn_150_car_10_n04285008_11744.png
cornet-s,6,936,NaN,boat,car,150,6536_ps_dnn_150_car_10_n02814533_8499.png
cornet-s,6,937,NaN,dog,car,150,6537_ps_dnn_150_car_10_n03100240_17583.png
cornet-s,6,938,NaN,oven,car,150,6538_ps_dnn_150_car_10_n02814533_27977.png
cornet-s,6,939,NaN,bear,car,150,6539_ps_dnn_150_car_10_n02814533_93487.png
cornet-s,6,940,NaN,bear,car,150,6540_ps_dnn_150_car_10_n03100240_14667.png
cornet-s,6,941,NaN,knife,bird,150,6541_ps_dnn_150_bird_10_n01828970_2779.png
cornet-s,6,942,NaN,cat,bird,150,6542_ps_dnn_150_bird_10_n02017213_4812.png
cornet-s,6,943,NaN,chair,bird,150,6543_ps_dnn_150_bird_10_n01798484_2618.png
cornet-s,6,944,NaN,knife,bird,150,6544_ps_dnn_150_bird_10_n02033041_3282.png
cornet-s,6,945,NaN,cat,bird,150,6545_ps_dnn_150_bird_10_n01817953_10942.png
cornet-s,6,946,NaN,boat,bird,150,6546_ps_dnn_150_bird_10_n01828970_7093.png
cornet-s,6,947,NaN,knife,bird,150,6547_ps_dnn_150_bird_10_n01592084_7219.png
cornet-s,6,948,NaN,knife,bird,150,6548_ps_dnn_150_bird_10_n01819313_5056.png
cornet-s,6,949,NaN,cat,bird,150,6549_ps_dnn_150_bird_10_n01531178_3841.png
cornet-s,6,950,NaN,knife,bird,150,6550_ps_dnn_150_bird_10_n01531178_3140.png
cornet-s,6,951,NaN,bird,dog,150,6551_ps_dnn_150_dog_10_n02110063_899.png
cornet-s,6,952,NaN,knife,dog,150,6552_ps_dnn_150_dog_10_n02097130_2321.png
cornet-s,6,953,NaN,knife,dog,150,6553_ps_dnn_150_dog_10_n02086910_17012.png
cornet-s,6,954,NaN,knife,dog,150,6554_ps_dnn_150_dog_10_n02100735_6217.png
cornet-s,6,955,NaN,dog,dog,150,6555_ps_dnn_150_dog_10_n02105056_11146.png
cornet-s,6,956,NaN,bird,dog,150,6556_ps_dnn_150_dog_10_n02110185_12009.png
cornet-s,6,957,NaN,cat,dog,150,6557_ps_dnn_150_dog_10_n02097474_9443.png
cornet-s,6,958,NaN,knife,dog,150,6558_ps_dnn_150_dog_10_n02113712_14009.png
cornet-s,6,959,NaN,knife,dog,150,6559_ps_dnn_150_dog_10_n02105641_10876.png
cornet-s,6,960,NaN,dog,dog,150,6560_ps_dnn_150_dog_10_n02093647_1758.png
cornet-s,6,961,NaN,bear,knife,180,6561_ps_dnn_180_knife_10_n03041632_24998.png
cornet-s,6,962,NaN,knife,knife,180,6562_ps_dnn_180_knife_10_n03041632_9759.png
cornet-s,6,963,NaN,dog,knife,180,6563_ps_dnn_180_knife_10_n03041632_24461.png
cornet-s,6,964,NaN,bear,knife,180,6564_ps_dnn_180_knife_10_n03041632_20595.png
cornet-s,6,965,NaN,knife,knife,180,6565_ps_dnn_180_knife_10_n03041632_25512.png
cornet-s,6,966,NaN,knife,knife,180,6566_ps_dnn_180_knife_10_n03041632_102828.png
cornet-s,6,967,NaN,knife,knife,180,6567_ps_dnn_180_knife_10_n03041632_30801.png
cornet-s,6,968,NaN,knife,knife,180,6568_ps_dnn_180_knife_10_n03041632_11326.png
cornet-s,6,969,NaN,bear,knife,180,6569_ps_dnn_180_knife_10_n03041632_2319.png
cornet-s,6,970,NaN,knife,knife,180,6570_ps_dnn_180_knife_10_n03041632_45270.png
cornet-s,6,971,NaN,cat,keyboard,180,6571_ps_dnn_180_keyboard_10_n03085013_6904.png
cornet-s,6,972,NaN,knife,keyboard,180,6572_ps_dnn_180_keyboard_10_n03085013_18850.png
cornet-s,6,973,NaN,keyboard,keyboard,180,6573_ps_dnn_180_keyboard_10_n04505470_2040.png
cornet-s,6,974,NaN,cat,keyboard,180,6574_ps_dnn_180_keyboard_10_n04505470_2569.png
cornet-s,6,975,NaN,knife,keyboard,180,6575_ps_dnn_180_keyboard_10_n04505470_10055.png
cornet-s,6,976,NaN,knife,keyboard,180,6576_ps_dnn_180_keyboard_10_n04505470_2306.png
cornet-s,6,977,NaN,knife,keyboard,180,6577_ps_dnn_180_keyboard_10_n03085013_24402.png
cornet-s,6,978,NaN,knife,keyboard,180,6578_ps_dnn_180_keyboard_10_n03085013_15295.png
cornet-s,6,979,NaN,cat,keyboard,180,6579_ps_dnn_180_keyboard_10_n03085013_20891.png
cornet-s,6,980,NaN,knife,keyboard,180,6580_ps_dnn_180_keyboard_10_n04505470_4966.png
cornet-s,6,981,NaN,dog,elephant,180,6581_ps_dnn_180_elephant_10_n02504458_1441.png
cornet-s,6,982,NaN,bear,elephant,180,6582_ps_dnn_180_elephant_10_n02504458_7225.png
cornet-s,6,983,NaN,bird,elephant,180,6583_ps_dnn_180_elephant_10_n02504458_1431.png
cornet-s,6,984,NaN,knife,elephant,180,6584_ps_dnn_180_elephant_10_n02504458_13409.png
cornet-s,6,985,NaN,cat,elephant,180,6585_ps_dnn_180_elephant_10_n02504013_4211.png
cornet-s,6,986,NaN,knife,elephant,180,6586_ps_dnn_180_elephant_10_n02504458_5996.png
cornet-s,6,987,NaN,knife,elephant,180,6587_ps_dnn_180_elephant_10_n02504013_632.png
cornet-s,6,988,NaN,cat,elephant,180,6588_ps_dnn_180_elephant_10_n02504013_6321.png
cornet-s,6,989,NaN,knife,elephant,180,6589_ps_dnn_180_elephant_10_n02504013_3567.png
cornet-s,6,990,NaN,knife,elephant,180,6590_ps_dnn_180_elephant_10_n02504013_3141.png
cornet-s,6,991,NaN,knife,bicycle,180,6591_ps_dnn_180_bicycle_10_n02835271_20177.png
cornet-s,6,992,NaN,knife,bicycle,180,6592_ps_dnn_180_bicycle_10_n03792782_50743.png
cornet-s,6,993,NaN,knife,bicycle,180,6593_ps_dnn_180_bicycle_10_n02835271_10863.png
cornet-s,6,994,NaN,knife,bicycle,180,6594_ps_dnn_180_bicycle_10_n02835271_4838.png
cornet-s,6,995,NaN,elephant,bicycle,180,6595_ps_dnn_180_bicycle_10_n03792782_77949.png
cornet-s,6,996,NaN,knife,bicycle,180,6596_ps_dnn_180_bicycle_10_n03792782_71025.png
cornet-s,6,997,NaN,knife,bicycle,180,6597_ps_dnn_180_bicycle_10_n02835271_1975.png
cornet-s,6,998,NaN,chair,bicycle,180,6598_ps_dnn_180_bicycle_10_n02835271_16017.png
cornet-s,6,999,NaN,dog,bicycle,180,6599_ps_dnn_180_bicycle_10_n02835271_7873.png
cornet-s,6,1000,NaN,dog,bicycle,180,6600_ps_dnn_180_bicycle_10_n02835271_20010.png
cornet-s,6,1001,NaN,knife,airplane,180,6601_ps_dnn_180_airplane_10_n02690373_2468.png
cornet-s,6,1002,NaN,knife,airplane,180,6602_ps_dnn_180_airplane_10_n02690373_9794.png
cornet-s,6,1003,NaN,knife,airplane,180,6603_ps_dnn_180_airplane_10_n02690373_101.png
cornet-s,6,1004,NaN,knife,airplane,180,6604_ps_dnn_180_airplane_10_n02690373_6739.png
cornet-s,6,1005,NaN,knife,airplane,180,6605_ps_dnn_180_airplane_10_n02690373_1306.png
cornet-s,6,1006,NaN,knife,airplane,180,6606_ps_dnn_180_airplane_10_n02690373_9531.png
cornet-s,6,1007,NaN,knife,airplane,180,6607_ps_dnn_180_airplane_10_n02690373_6716.png
cornet-s,6,1008,NaN,knife,airplane,180,6608_ps_dnn_180_airplane_10_n02690373_8743.png
cornet-s,6,1009,NaN,knife,airplane,180,6609_ps_dnn_180_airplane_10_n02690373_190.png
cornet-s,6,1010,NaN,knife,airplane,180,6610_ps_dnn_180_airplane_10_n02690373_8791.png
cornet-s,6,1011,NaN,knife,clock,180,6611_ps_dnn_180_clock_10_n02708093_695.png
cornet-s,6,1012,NaN,cat,clock,180,6612_ps_dnn_180_clock_10_n04548280_9340.png
cornet-s,6,1013,NaN,knife,clock,180,6613_ps_dnn_180_clock_10_n04548280_6159.png
cornet-s,6,1014,NaN,clock,clock,180,6614_ps_dnn_180_clock_10_n02708093_4964.png
cornet-s,6,1015,NaN,cat,clock,180,6615_ps_dnn_180_clock_10_n04548280_2170.png
cornet-s,6,1016,NaN,knife,clock,180,6616_ps_dnn_180_clock_10_n02708093_7841.png
cornet-s,6,1017,NaN,knife,clock,180,6617_ps_dnn_180_clock_10_n04548280_1810.png
cornet-s,6,1018,NaN,clock,clock,180,6618_ps_dnn_180_clock_10_n03196217_1797.png
cornet-s,6,1019,NaN,knife,clock,180,6619_ps_dnn_180_clock_10_n02708093_2979.png
cornet-s,6,1020,NaN,dog,clock,180,6620_ps_dnn_180_clock_10_n04548280_7482.png
cornet-s,6,1021,NaN,dog,oven,180,6621_ps_dnn_180_oven_10_n04111531_2186.png
cornet-s,6,1022,NaN,cat,oven,180,6622_ps_dnn_180_oven_10_n04111531_2116.png
cornet-s,6,1023,NaN,knife,oven,180,6623_ps_dnn_180_oven_10_n04111531_2473.png
cornet-s,6,1024,NaN,dog,oven,180,6624_ps_dnn_180_oven_10_n04111531_8687.png
cornet-s,6,1025,NaN,bird,oven,180,6625_ps_dnn_180_oven_10_n04111531_13797.png
cornet-s,6,1026,NaN,knife,oven,180,6626_ps_dnn_180_oven_10_n04111531_15416.png
cornet-s,6,1027,NaN,knife,oven,180,6627_ps_dnn_180_oven_10_n04111531_1945.png
cornet-s,6,1028,NaN,cat,oven,180,6628_ps_dnn_180_oven_10_n04111531_4549.png
cornet-s,6,1029,NaN,cat,oven,180,6629_ps_dnn_180_oven_10_n04111531_12053.png
cornet-s,6,1030,NaN,cat,oven,180,6630_ps_dnn_180_oven_10_n04111531_7965.png
cornet-s,6,1031,NaN,elephant,chair,180,6631_ps_dnn_180_chair_10_n02791124_2313.png
cornet-s,6,1032,NaN,knife,chair,180,6632_ps_dnn_180_chair_10_n04099969_65.png
cornet-s,6,1033,NaN,knife,chair,180,6633_ps_dnn_180_chair_10_n03376595_3678.png
cornet-s,6,1034,NaN,dog,chair,180,6634_ps_dnn_180_chair_10_n02791124_3725.png
cornet-s,6,1035,NaN,elephant,chair,180,6635_ps_dnn_180_chair_10_n02791124_3805.png
cornet-s,6,1036,NaN,dog,chair,180,6636_ps_dnn_180_chair_10_n04429376_310.png
cornet-s,6,1037,NaN,knife,chair,180,6637_ps_dnn_180_chair_10_n04099969_14333.png
cornet-s,6,1038,NaN,knife,chair,180,6638_ps_dnn_180_chair_10_n04099969_8785.png
cornet-s,6,1039,NaN,dog,chair,180,6639_ps_dnn_180_chair_10_n02791124_5893.png
cornet-s,6,1040,NaN,dog,chair,180,6640_ps_dnn_180_chair_10_n03376595_4366.png
cornet-s,6,1041,NaN,dog,bear,180,6641_ps_dnn_180_bear_10_n02134418_4804.png
cornet-s,6,1042,NaN,knife,bear,180,6642_ps_dnn_180_bear_10_n02134418_2381.png
cornet-s,6,1043,NaN,elephant,bear,180,6643_ps_dnn_180_bear_10_n02133161_11964.png
cornet-s,6,1044,NaN,knife,bear,180,6644_ps_dnn_180_bear_10_n02132136_204.png
cornet-s,6,1045,NaN,boat,bear,180,6645_ps_dnn_180_bear_10_n02134084_34170.png
cornet-s,6,1046,NaN,bird,bear,180,6646_ps_dnn_180_bear_10_n02133161_8677.png
cornet-s,6,1047,NaN,knife,bear,180,6647_ps_dnn_180_bear_10_n02132136_8455.png
cornet-s,6,1048,NaN,dog,bear,180,6648_ps_dnn_180_bear_10_n02132136_234.png
cornet-s,6,1049,NaN,knife,bear,180,6649_ps_dnn_180_bear_10_n02133161_1271.png
cornet-s,6,1050,NaN,cat,bear,180,6650_ps_dnn_180_bear_10_n02134084_23164.png
cornet-s,6,1051,NaN,knife,boat,180,6651_ps_dnn_180_boat_10_n04273569_3022.png
cornet-s,6,1052,NaN,knife,boat,180,6652_ps_dnn_180_boat_10_n02951358_14730.png
cornet-s,6,1053,NaN,knife,boat,180,6653_ps_dnn_180_boat_10_n03662601_19488.png
cornet-s,6,1054,NaN,knife,boat,180,6654_ps_dnn_180_boat_10_n04612504_2858.png
cornet-s,6,1055,NaN,cat,boat,180,6655_ps_dnn_180_boat_10_n02951358_22150.png
cornet-s,6,1056,NaN,knife,boat,180,6656_ps_dnn_180_boat_10_n04273569_10021.png
cornet-s,6,1057,NaN,dog,boat,180,6657_ps_dnn_180_boat_10_n03344393_13639.png
cornet-s,6,1058,NaN,knife,boat,180,6658_ps_dnn_180_boat_10_n03344393_11851.png
cornet-s,6,1059,NaN,knife,boat,180,6659_ps_dnn_180_boat_10_n04612504_18926.png
cornet-s,6,1060,NaN,cat,boat,180,6660_ps_dnn_180_boat_10_n04612504_9493.png
cornet-s,6,1061,NaN,knife,cat,180,6661_ps_dnn_180_cat_10_n02123045_3542.png
cornet-s,6,1062,NaN,knife,cat,180,6662_ps_dnn_180_cat_10_n02125311_76808.png
cornet-s,6,1063,NaN,knife,cat,180,6663_ps_dnn_180_cat_10_n02123394_1638.png
cornet-s,6,1064,NaN,knife,cat,180,6664_ps_dnn_180_cat_10_n02123159_4554.png
cornet-s,6,1065,NaN,cat,cat,180,6665_ps_dnn_180_cat_10_n02123159_7702.png
cornet-s,6,1066,NaN,knife,cat,180,6666_ps_dnn_180_cat_10_n02124075_20092.png
cornet-s,6,1067,NaN,cat,cat,180,6667_ps_dnn_180_cat_10_n02123159_5908.png
cornet-s,6,1068,NaN,knife,cat,180,6668_ps_dnn_180_cat_10_n02123597_4805.png
cornet-s,6,1069,NaN,knife,cat,180,6669_ps_dnn_180_cat_10_n02123394_5622.png
cornet-s,6,1070,NaN,knife,cat,180,6670_ps_dnn_180_cat_10_n02123045_5381.png
cornet-s,6,1071,NaN,cat,bottle,180,6671_ps_dnn_180_bottle_10_n03983396_10739.png
cornet-s,6,1072,NaN,knife,bottle,180,6672_ps_dnn_180_bottle_10_n03983396_18753.png
cornet-s,6,1073,NaN,cat,bottle,180,6673_ps_dnn_180_bottle_10_n03937543_7854.png
cornet-s,6,1074,NaN,knife,bottle,180,6674_ps_dnn_180_bottle_10_n04560804_6156.png
cornet-s,6,1075,NaN,knife,bottle,180,6675_ps_dnn_180_bottle_10_n02823428_14149.png
cornet-s,6,1076,NaN,cat,bottle,180,6676_ps_dnn_180_bottle_10_n04557648_1719.png
cornet-s,6,1077,NaN,knife,bottle,180,6677_ps_dnn_180_bottle_10_n04557648_11493.png
cornet-s,6,1078,NaN,bear,bottle,180,6678_ps_dnn_180_bottle_10_n02823428_6168.png
cornet-s,6,1079,NaN,dog,bottle,180,6679_ps_dnn_180_bottle_10_n04591713_2180.png
cornet-s,6,1080,NaN,cat,bottle,180,6680_ps_dnn_180_bottle_10_n04591713_7219.png
cornet-s,6,1081,NaN,knife,truck,180,6681_ps_dnn_180_truck_10_n03417042_3065.png
cornet-s,6,1082,NaN,cat,truck,180,6682_ps_dnn_180_truck_10_n04467665_58762.png
cornet-s,6,1083,NaN,boat,truck,180,6683_ps_dnn_180_truck_10_n03417042_12328.png
cornet-s,6,1084,NaN,knife,truck,180,6684_ps_dnn_180_truck_10_n04467665_2376.png
cornet-s,6,1085,NaN,knife,truck,180,6685_ps_dnn_180_truck_10_n04467665_39836.png
cornet-s,6,1086,NaN,cat,truck,180,6686_ps_dnn_180_truck_10_n04467665_69134.png
cornet-s,6,1087,NaN,bear,truck,180,6687_ps_dnn_180_truck_10_n03796401_1773.png
cornet-s,6,1088,NaN,knife,truck,180,6688_ps_dnn_180_truck_10_n04467665_4810.png
cornet-s,6,1089,NaN,knife,truck,180,6689_ps_dnn_180_truck_10_n03417042_1263.png
cornet-s,6,1090,NaN,elephant,truck,180,6690_ps_dnn_180_truck_10_n03796401_16686.png
cornet-s,6,1091,NaN,bear,car,180,6691_ps_dnn_180_car_10_n03100240_11427.png
cornet-s,6,1092,NaN,bear,car,180,6692_ps_dnn_180_car_10_n02814533_61039.png
cornet-s,6,1093,NaN,knife,car,180,6693_ps_dnn_180_car_10_n03100240_6508.png
cornet-s,6,1094,NaN,cat,car,180,6694_ps_dnn_180_car_10_n03100240_11861.png
cornet-s,6,1095,NaN,knife,car,180,6695_ps_dnn_180_car_10_n02814533_4166.png
cornet-s,6,1096,NaN,knife,car,180,6696_ps_dnn_180_car_10_n04285008_4769.png
cornet-s,6,1097,NaN,knife,car,180,6697_ps_dnn_180_car_10_n02814533_45692.png
cornet-s,6,1098,NaN,knife,car,180,6698_ps_dnn_180_car_10_n03100240_3581.png
cornet-s,6,1099,NaN,elephant,car,180,6699_ps_dnn_180_car_10_n03100240_1275.png
cornet-s,6,1100,NaN,knife,car,180,6700_ps_dnn_180_car_10_n02814533_11051.png
cornet-s,6,1101,NaN,cat,bird,180,6701_ps_dnn_180_bird_10_n01534433_5262.png
cornet-s,6,1102,NaN,knife,bird,180,6702_ps_dnn_180_bird_10_n01616318_6006.png
cornet-s,6,1103,NaN,knife,bird,180,6703_ps_dnn_180_bird_10_n01843383_7482.png
cornet-s,6,1104,NaN,knife,bird,180,6704_ps_dnn_180_bird_10_n01532829_17867.png
cornet-s,6,1105,NaN,chair,bird,180,6705_ps_dnn_180_bird_10_n01614925_1234.png
cornet-s,6,1106,NaN,dog,bird,180,6706_ps_dnn_180_bird_10_n01855672_12740.png
cornet-s,6,1107,NaN,chair,bird,180,6707_ps_dnn_180_bird_10_n01824575_2442.png
cornet-s,6,1108,NaN,knife,bird,180,6708_ps_dnn_180_bird_10_n01796340_17899.png
cornet-s,6,1109,NaN,knife,bird,180,6709_ps_dnn_180_bird_10_n02056570_3382.png
cornet-s,6,1110,NaN,knife,bird,180,6710_ps_dnn_180_bird_10_n01855672_3175.png
cornet-s,6,1111,NaN,bird,dog,180,6711_ps_dnn_180_dog_10_n02102040_1840.png
cornet-s,6,1112,NaN,dog,dog,180,6712_ps_dnn_180_dog_10_n02105641_2750.png
cornet-s,6,1113,NaN,knife,dog,180,6713_ps_dnn_180_dog_10_n02088632_973.png
cornet-s,6,1114,NaN,knife,dog,180,6714_ps_dnn_180_dog_10_n02106166_6698.png
cornet-s,6,1115,NaN,knife,dog,180,6715_ps_dnn_180_dog_10_n02107908_7567.png
cornet-s,6,1116,NaN,knife,dog,180,6716_ps_dnn_180_dog_10_n02093991_7777.png
cornet-s,6,1117,NaN,bear,dog,180,6717_ps_dnn_180_dog_10_n02090721_1876.png
cornet-s,6,1118,NaN,cat,dog,180,6718_ps_dnn_180_dog_10_n02108000_6763.png
cornet-s,6,1119,NaN,knife,dog,180,6719_ps_dnn_180_dog_10_n02110185_8134.png
cornet-s,6,1120,NaN,knife,dog,180,6720_ps_dnn_180_dog_10_n02104365_1981.png
