subj,session,trial,rt,object_response,category,condition,imagename
densenet169,1,1,NaN,airplane,airplane,NaN,airplane1.png
densenet169,1,2,NaN,airplane,airplane,NaN,airplane10.png
densenet169,1,3,NaN,airplane,airplane,NaN,airplane2.png
densenet169,1,4,NaN,airplane,airplane,NaN,airplane3.png
densenet169,1,5,NaN,airplane,airplane,NaN,airplane4.png
densenet169,1,6,NaN,airplane,airplane,NaN,airplane5.png
densenet169,1,7,NaN,airplane,airplane,NaN,airplane6.png
densenet169,1,8,NaN,airplane,airplane,NaN,airplane7.png
densenet169,1,9,NaN,airplane,airplane,NaN,airplane8.png
densenet169,1,10,NaN,truck,airplane,NaN,airplane9.png
densenet169,1,11,NaN,cat,bear,NaN,bear1.png
densenet169,1,12,NaN,bear,bear,NaN,bear10.png
densenet169,1,13,NaN,bear,bear,NaN,bear2.png
densenet169,1,14,NaN,bear,bear,NaN,bear3.png
densenet169,1,15,NaN,bear,bear,NaN,bear4.png
densenet169,1,16,NaN,bear,bear,NaN,bear5.png
densenet169,1,17,NaN,dog,bear,NaN,bear6.png
densenet169,1,18,NaN,bear,bear,NaN,bear7.png
densenet169,1,19,NaN,bear,bear,NaN,bear8.png
densenet169,1,20,NaN,bear,bear,NaN,bear9.png
densenet169,1,21,NaN,bicycle,bicycle,NaN,bicycle1.png
densenet169,1,22,NaN,bicycle,bicycle,NaN,bicycle10.png
densenet169,1,23,NaN,bicycle,bicycle,NaN,bicycle2.png
densenet169,1,24,NaN,bicycle,bicycle,NaN,bicycle3.png
densenet169,1,25,NaN,bicycle,bicycle,NaN,bicycle4.png
densenet169,1,26,NaN,bicycle,bicycle,NaN,bicycle5.png
densenet169,1,27,NaN,bicycle,bicycle,NaN,bicycle6.png
densenet169,1,28,NaN,bicycle,bicycle,NaN,bicycle7.png
densenet169,1,29,NaN,bicycle,bicycle,NaN,bicycle8.png
densenet169,1,30,NaN,bicycle,bicycle,NaN,bicycle9.png
densenet169,1,31,NaN,bird,bird,NaN,bird1.png
densenet169,1,32,NaN,bird,bird,NaN,bird10.png
densenet169,1,33,NaN,elephant,bird,NaN,bird2.png
densenet169,1,34,NaN,chair,bird,NaN,bird3.png
densenet169,1,35,NaN,bird,bird,NaN,bird4.png
densenet169,1,36,NaN,bird,bird,NaN,bird5.png
densenet169,1,37,NaN,clock,bird,NaN,bird6.png
densenet169,1,38,NaN,oven,bird,NaN,bird7.png
densenet169,1,39,NaN,bird,bird,NaN,bird8.png
densenet169,1,40,NaN,bird,bird,NaN,bird9.png
densenet169,1,41,NaN,knife,boat,NaN,boat1.png
densenet169,1,42,NaN,knife,boat,NaN,boat10.png
densenet169,1,43,NaN,knife,boat,NaN,boat2.png
densenet169,1,44,NaN,clock,boat,NaN,boat3.png
densenet169,1,45,NaN,knife,boat,NaN,boat4.png
densenet169,1,46,NaN,clock,boat,NaN,boat5.png
densenet169,1,47,NaN,knife,boat,NaN,boat6.png
densenet169,1,48,NaN,knife,boat,NaN,boat7.png
densenet169,1,49,NaN,knife,boat,NaN,boat8.png
densenet169,1,50,NaN,clock,boat,NaN,boat9.png
densenet169,1,51,NaN,bottle,bottle,NaN,bottle1.png
densenet169,1,52,NaN,bottle,bottle,NaN,bottle10.png
densenet169,1,53,NaN,bottle,bottle,NaN,bottle2.png
densenet169,1,54,NaN,bottle,bottle,NaN,bottle3.png
densenet169,1,55,NaN,bottle,bottle,NaN,bottle4.png
densenet169,1,56,NaN,bottle,bottle,NaN,bottle5.png
densenet169,1,57,NaN,bottle,bottle,NaN,bottle6.png
densenet169,1,58,NaN,bottle,bottle,NaN,bottle7.png
densenet169,1,59,NaN,bottle,bottle,NaN,bottle8.png
densenet169,1,60,NaN,bottle,bottle,NaN,bottle9.png
densenet169,1,61,NaN,knife,car,NaN,car1.png
densenet169,1,62,NaN,knife,car,NaN,car10.png
densenet169,1,63,NaN,knife,car,NaN,car2.png
densenet169,1,64,NaN,knife,car,NaN,car3.png
densenet169,1,65,NaN,bottle,car,NaN,car4.png
densenet169,1,66,NaN,clock,car,NaN,car5.png
densenet169,1,67,NaN,knife,car,NaN,car6.png
densenet169,1,68,NaN,bottle,car,NaN,car7.png
densenet169,1,69,NaN,bottle,car,NaN,car8.png
densenet169,1,70,NaN,airplane,car,NaN,car9.png
densenet169,1,71,NaN,cat,cat,NaN,cat1.png
densenet169,1,72,NaN,bird,cat,NaN,cat10.png
densenet169,1,73,NaN,dog,cat,NaN,cat2.png
densenet169,1,74,NaN,clock,cat,NaN,cat3.png
densenet169,1,75,NaN,cat,cat,NaN,cat4.png
densenet169,1,76,NaN,bear,cat,NaN,cat5.png
densenet169,1,77,NaN,cat,cat,NaN,cat6.png
densenet169,1,78,NaN,dog,cat,NaN,cat7.png
densenet169,1,79,NaN,bear,cat,NaN,cat8.png
densenet169,1,80,NaN,bear,cat,NaN,cat9.png
densenet169,1,81,NaN,chair,chair,NaN,chair1.png
densenet169,1,82,NaN,chair,chair,NaN,chair10.png
densenet169,1,83,NaN,chair,chair,NaN,chair2.png
densenet169,1,84,NaN,chair,chair,NaN,chair3.png
densenet169,1,85,NaN,chair,chair,NaN,chair4.png
densenet169,1,86,NaN,chair,chair,NaN,chair5.png
densenet169,1,87,NaN,chair,chair,NaN,chair6.png
densenet169,1,88,NaN,chair,chair,NaN,chair7.png
densenet169,1,89,NaN,chair,chair,NaN,chair8.png
densenet169,1,90,NaN,chair,chair,NaN,chair9.png
densenet169,1,91,NaN,knife,clock,NaN,clock1.png
densenet169,1,92,NaN,chair,clock,NaN,clock10.png
densenet169,1,93,NaN,clock,clock,NaN,clock2.png
densenet169,1,94,NaN,clock,clock,NaN,clock3.png
densenet169,1,95,NaN,knife,clock,NaN,clock4.png
densenet169,1,96,NaN,clock,clock,NaN,clock5.png
densenet169,1,97,NaN,clock,clock,NaN,clock6.png
densenet169,1,98,NaN,chair,clock,NaN,clock7.png
densenet169,1,99,NaN,clock,clock,NaN,clock8.png
densenet169,1,100,NaN,clock,clock,NaN,clock9.png
densenet169,1,101,NaN,knife,dog,NaN,dog1.png
densenet169,1,102,NaN,dog,dog,NaN,dog10.png
densenet169,1,103,NaN,dog,dog,NaN,dog2.png
densenet169,1,104,NaN,dog,dog,NaN,dog3.png
densenet169,1,105,NaN,dog,dog,NaN,dog4.png
densenet169,1,106,NaN,dog,dog,NaN,dog5.png
densenet169,1,107,NaN,bottle,dog,NaN,dog6.png
densenet169,1,108,NaN,clock,dog,NaN,dog7.png
densenet169,1,109,NaN,dog,dog,NaN,dog8.png
densenet169,1,110,NaN,dog,dog,NaN,dog9.png
densenet169,1,111,NaN,elephant,elephant,NaN,elephant1.png
densenet169,1,112,NaN,bottle,elephant,NaN,elephant10.png
densenet169,1,113,NaN,elephant,elephant,NaN,elephant2.png
densenet169,1,114,NaN,bear,elephant,NaN,elephant3.png
densenet169,1,115,NaN,elephant,elephant,NaN,elephant4.png
densenet169,1,116,NaN,elephant,elephant,NaN,elephant5.png
densenet169,1,117,NaN,elephant,elephant,NaN,elephant6.png
densenet169,1,118,NaN,elephant,elephant,NaN,elephant7.png
densenet169,1,119,NaN,elephant,elephant,NaN,elephant8.png
densenet169,1,120,NaN,elephant,elephant,NaN,elephant9.png
densenet169,1,121,NaN,knife,keyboard,NaN,keyboard1.png
densenet169,1,122,NaN,knife,keyboard,NaN,keyboard10.png
densenet169,1,123,NaN,knife,keyboard,NaN,keyboard2.png
densenet169,1,124,NaN,knife,keyboard,NaN,keyboard3.png
densenet169,1,125,NaN,knife,keyboard,NaN,keyboard4.png
densenet169,1,126,NaN,knife,keyboard,NaN,keyboard5.png
densenet169,1,127,NaN,knife,keyboard,NaN,keyboard6.png
densenet169,1,128,NaN,knife,keyboard,NaN,keyboard7.png
densenet169,1,129,NaN,knife,keyboard,NaN,keyboard8.png
densenet169,1,130,NaN,knife,keyboard,NaN,keyboard9.png
densenet169,1,131,NaN,clock,knife,NaN,knife1.png
densenet169,1,132,NaN,knife,knife,NaN,knife10.png
densenet169,1,133,NaN,knife,knife,NaN,knife2.png
densenet169,1,134,NaN,clock,knife,NaN,knife3.png
densenet169,1,135,NaN,oven,knife,NaN,knife4.png
densenet169,1,136,NaN,knife,knife,NaN,knife5.png
densenet169,1,137,NaN,knife,knife,NaN,knife6.png
densenet169,1,138,NaN,knife,knife,NaN,knife7.png
densenet169,1,139,NaN,knife,knife,NaN,knife8.png
densenet169,1,140,NaN,knife,knife,NaN,knife9.png
densenet169,1,141,NaN,knife,oven,NaN,oven1.png
densenet169,1,142,NaN,knife,oven,NaN,oven10.png
densenet169,1,143,NaN,knife,oven,NaN,oven2.png
densenet169,1,144,NaN,clock,oven,NaN,oven3.png
densenet169,1,145,NaN,knife,oven,NaN,oven4.png
densenet169,1,146,NaN,chair,oven,NaN,oven5.png
densenet169,1,147,NaN,knife,oven,NaN,oven6.png
densenet169,1,148,NaN,clock,oven,NaN,oven7.png
densenet169,1,149,NaN,knife,oven,NaN,oven8.png
densenet169,1,150,NaN,knife,oven,NaN,oven9.png
densenet169,1,151,NaN,knife,truck,NaN,truck1.png
densenet169,1,152,NaN,clock,truck,NaN,truck10.png
densenet169,1,153,NaN,knife,truck,NaN,truck2.png
densenet169,1,154,NaN,knife,truck,NaN,truck3.png
densenet169,1,155,NaN,oven,truck,NaN,truck4.png
densenet169,1,156,NaN,knife,truck,NaN,truck5.png
densenet169,1,157,NaN,bird,truck,NaN,truck6.png
densenet169,1,158,NaN,knife,truck,NaN,truck7.png
densenet169,1,159,NaN,bird,truck,NaN,truck8.png
densenet169,1,160,NaN,knife,truck,NaN,truck9.png
