subj,session,trial,rt,object_response,category,condition,imagename
cornet-s,2,1,NaN,knife,knife,0.00,1281_nse_dnn_0.00_knife_10_n03041632_1884.JPEG
cornet-s,2,2,NaN,knife,knife,0.00,1282_nse_dnn_0.00_knife_10_n03041632_21859.JPEG
cornet-s,2,3,NaN,knife,knife,0.00,1283_nse_dnn_0.00_knife_10_n03041632_44230.JPEG
cornet-s,2,4,NaN,knife,knife,0.00,1284_nse_dnn_0.00_knife_10_n03041632_29862.JPEG
cornet-s,2,5,NaN,chair,knife,0.00,1285_nse_dnn_0.00_knife_10_n03041632_95293.JPEG
cornet-s,2,6,NaN,knife,knife,0.00,1286_nse_dnn_0.00_knife_10_n03041632_29125.JPEG
cornet-s,2,7,NaN,knife,knife,0.00,1287_nse_dnn_0.00_knife_10_n03041632_45312.JPEG
cornet-s,2,8,NaN,knife,knife,0.00,1288_nse_dnn_0.00_knife_10_n03041632_24060.JPEG
cornet-s,2,9,NaN,knife,knife,0.00,1289_nse_dnn_0.00_knife_10_n03041632_5102.JPEG
cornet-s,2,10,NaN,bottle,knife,0.00,1290_nse_dnn_0.00_knife_10_n03041632_29858.JPEG
cornet-s,2,11,NaN,keyboard,keyboard,0.00,1291_nse_dnn_0.00_keyboard_10_n04505470_8148.JPEG
cornet-s,2,12,NaN,keyboard,keyboard,0.00,1292_nse_dnn_0.00_keyboard_10_n03085013_24649.JPEG
cornet-s,2,13,NaN,keyboard,keyboard,0.00,1293_nse_dnn_0.00_keyboard_10_n03085013_23658.JPEG
cornet-s,2,14,NaN,chair,keyboard,0.00,1294_nse_dnn_0.00_keyboard_10_n03085013_24633.JPEG
cornet-s,2,15,NaN,keyboard,keyboard,0.00,1295_nse_dnn_0.00_keyboard_10_n04505470_4878.JPEG
cornet-s,2,16,NaN,keyboard,keyboard,0.00,1296_nse_dnn_0.00_keyboard_10_n03085013_6432.JPEG
cornet-s,2,17,NaN,keyboard,keyboard,0.00,1297_nse_dnn_0.00_keyboard_10_n03085013_5714.JPEG
cornet-s,2,18,NaN,keyboard,keyboard,0.00,1298_nse_dnn_0.00_keyboard_10_n03085013_23286.JPEG
cornet-s,2,19,NaN,keyboard,keyboard,0.00,1299_nse_dnn_0.00_keyboard_10_n04505470_2488.JPEG
cornet-s,2,20,NaN,keyboard,keyboard,0.00,1300_nse_dnn_0.00_keyboard_10_n03085013_11332.JPEG
cornet-s,2,21,NaN,elephant,elephant,0.00,1301_nse_dnn_0.00_elephant_10_n02504013_3634.JPEG
cornet-s,2,22,NaN,elephant,elephant,0.00,1302_nse_dnn_0.00_elephant_10_n02504013_16929.JPEG
cornet-s,2,23,NaN,elephant,elephant,0.00,1303_nse_dnn_0.00_elephant_10_n02504458_825.JPEG
cornet-s,2,24,NaN,elephant,elephant,0.00,1304_nse_dnn_0.00_elephant_10_n02504458_6202.JPEG
cornet-s,2,25,NaN,elephant,elephant,0.00,1305_nse_dnn_0.00_elephant_10_n02504458_4165.JPEG
cornet-s,2,26,NaN,elephant,elephant,0.00,1306_nse_dnn_0.00_elephant_10_n02504013_3569.JPEG
cornet-s,2,27,NaN,elephant,elephant,0.00,1307_nse_dnn_0.00_elephant_10_n02504458_5384.JPEG
cornet-s,2,28,NaN,elephant,elephant,0.00,1308_nse_dnn_0.00_elephant_10_n02504458_5436.JPEG
cornet-s,2,29,NaN,elephant,elephant,0.00,1309_nse_dnn_0.00_elephant_10_n02504013_1576.JPEG
cornet-s,2,30,NaN,elephant,elephant,0.00,1310_nse_dnn_0.00_elephant_10_n02504458_6618.JPEG
cornet-s,2,31,NaN,bicycle,bicycle,0.00,1311_nse_dnn_0.00_bicycle_10_n03792782_1802.JPEG
cornet-s,2,32,NaN,bicycle,bicycle,0.00,1312_nse_dnn_0.00_bicycle_10_n02835271_1691.JPEG
cornet-s,2,33,NaN,bicycle,bicycle,0.00,1313_nse_dnn_0.00_bicycle_10_n02835271_695.JPEG
cornet-s,2,34,NaN,bicycle,bicycle,0.00,1314_nse_dnn_0.00_bicycle_10_n03792782_59381.JPEG
cornet-s,2,35,NaN,bicycle,bicycle,0.00,1315_nse_dnn_0.00_bicycle_10_n03792782_12844.JPEG
cornet-s,2,36,NaN,bicycle,bicycle,0.00,1316_nse_dnn_0.00_bicycle_10_n02835271_8327.JPEG
cornet-s,2,37,NaN,bicycle,bicycle,0.00,1317_nse_dnn_0.00_bicycle_10_n02835271_8881.JPEG
cornet-s,2,38,NaN,bicycle,bicycle,0.00,1318_nse_dnn_0.00_bicycle_10_n03792782_1155.JPEG
cornet-s,2,39,NaN,bicycle,bicycle,0.00,1319_nse_dnn_0.00_bicycle_10_n02835271_6362.JPEG
cornet-s,2,40,NaN,bicycle,bicycle,0.00,1320_nse_dnn_0.00_bicycle_10_n03792782_15101.JPEG
cornet-s,2,41,NaN,airplane,airplane,0.00,1321_nse_dnn_0.00_airplane_10_n02690373_1815.JPEG
cornet-s,2,42,NaN,airplane,airplane,0.00,1322_nse_dnn_0.00_airplane_10_n02690373_16620.JPEG
cornet-s,2,43,NaN,airplane,airplane,0.00,1323_nse_dnn_0.00_airplane_10_n02690373_1295.JPEG
cornet-s,2,44,NaN,airplane,airplane,0.00,1324_nse_dnn_0.00_airplane_10_n02690373_6899.JPEG
cornet-s,2,45,NaN,airplane,airplane,0.00,1325_nse_dnn_0.00_airplane_10_n02690373_5712.JPEG
cornet-s,2,46,NaN,airplane,airplane,0.00,1326_nse_dnn_0.00_airplane_10_n02690373_8446.JPEG
cornet-s,2,47,NaN,airplane,airplane,0.00,1327_nse_dnn_0.00_airplane_10_n02690373_12964.JPEG
cornet-s,2,48,NaN,airplane,airplane,0.00,1328_nse_dnn_0.00_airplane_10_n02690373_2010.JPEG
cornet-s,2,49,NaN,airplane,airplane,0.00,1329_nse_dnn_0.00_airplane_10_n02690373_3588.JPEG
cornet-s,2,50,NaN,airplane,airplane,0.00,1330_nse_dnn_0.00_airplane_10_n02690373_5885.JPEG
cornet-s,2,51,NaN,clock,clock,0.00,1331_nse_dnn_0.00_clock_10_n04548280_7868.JPEG
cornet-s,2,52,NaN,clock,clock,0.00,1332_nse_dnn_0.00_clock_10_n02708093_7944.JPEG
cornet-s,2,53,NaN,clock,clock,0.00,1333_nse_dnn_0.00_clock_10_n02708093_6959.JPEG
cornet-s,2,54,NaN,clock,clock,0.00,1334_nse_dnn_0.00_clock_10_n03196217_5404.JPEG
cornet-s,2,55,NaN,clock,clock,0.00,1335_nse_dnn_0.00_clock_10_n02708093_8234.JPEG
cornet-s,2,56,NaN,clock,clock,0.00,1336_nse_dnn_0.00_clock_10_n04548280_7490.JPEG
cornet-s,2,57,NaN,clock,clock,0.00,1337_nse_dnn_0.00_clock_10_n03196217_2695.JPEG
cornet-s,2,58,NaN,clock,clock,0.00,1338_nse_dnn_0.00_clock_10_n03196217_3695.JPEG
cornet-s,2,59,NaN,clock,clock,0.00,1339_nse_dnn_0.00_clock_10_n03196217_5610.JPEG
cornet-s,2,60,NaN,clock,clock,0.00,1340_nse_dnn_0.00_clock_10_n03196217_50.JPEG
cornet-s,2,61,NaN,oven,oven,0.00,1341_nse_dnn_0.00_oven_10_n04111531_12053.JPEG
cornet-s,2,62,NaN,oven,oven,0.00,1342_nse_dnn_0.00_oven_10_n04111531_7252.JPEG
cornet-s,2,63,NaN,oven,oven,0.00,1343_nse_dnn_0.00_oven_10_n04111531_12103.JPEG
cornet-s,2,64,NaN,knife,oven,0.00,1344_nse_dnn_0.00_oven_10_n04111531_1922.JPEG
cornet-s,2,65,NaN,boat,oven,0.00,1345_nse_dnn_0.00_oven_10_n04111531_24065.JPEG
cornet-s,2,66,NaN,oven,oven,0.00,1346_nse_dnn_0.00_oven_10_n04111531_12885.JPEG
cornet-s,2,67,NaN,bottle,oven,0.00,1347_nse_dnn_0.00_oven_10_n04111531_14279.JPEG
cornet-s,2,68,NaN,chair,oven,0.00,1348_nse_dnn_0.00_oven_10_n04111531_10403.JPEG
cornet-s,2,69,NaN,bear,oven,0.00,1349_nse_dnn_0.00_oven_10_n04111531_4331.JPEG
cornet-s,2,70,NaN,oven,oven,0.00,1350_nse_dnn_0.00_oven_10_n04111531_17781.JPEG
cornet-s,2,71,NaN,chair,chair,0.00,1351_nse_dnn_0.00_chair_10_n02791124_57.JPEG
cornet-s,2,72,NaN,chair,chair,0.00,1352_nse_dnn_0.00_chair_10_n03376595_19214.JPEG
cornet-s,2,73,NaN,chair,chair,0.00,1353_nse_dnn_0.00_chair_10_n03376595_8319.JPEG
cornet-s,2,74,NaN,chair,chair,0.00,1354_nse_dnn_0.00_chair_10_n02791124_2491.JPEG
cornet-s,2,75,NaN,chair,chair,0.00,1355_nse_dnn_0.00_chair_10_n03376595_120.JPEG
cornet-s,2,76,NaN,chair,chair,0.00,1356_nse_dnn_0.00_chair_10_n03376595_2234.JPEG
cornet-s,2,77,NaN,chair,chair,0.00,1357_nse_dnn_0.00_chair_10_n04099969_15880.JPEG
cornet-s,2,78,NaN,chair,chair,0.00,1358_nse_dnn_0.00_chair_10_n03376595_5730.JPEG
cornet-s,2,79,NaN,bottle,chair,0.00,1359_nse_dnn_0.00_chair_10_n04429376_22626.JPEG
cornet-s,2,80,NaN,chair,chair,0.00,1360_nse_dnn_0.00_chair_10_n04099969_7191.JPEG
cornet-s,2,81,NaN,bear,bear,0.00,1361_nse_dnn_0.00_bear_10_n02134418_751.JPEG
cornet-s,2,82,NaN,bear,bear,0.00,1362_nse_dnn_0.00_bear_10_n02133161_12304.JPEG
cornet-s,2,83,NaN,bear,bear,0.00,1363_nse_dnn_0.00_bear_10_n02133161_491.JPEG
cornet-s,2,84,NaN,bear,bear,0.00,1364_nse_dnn_0.00_bear_10_n02134084_12987.JPEG
cornet-s,2,85,NaN,bear,bear,0.00,1365_nse_dnn_0.00_bear_10_n02133161_714.JPEG
cornet-s,2,86,NaN,bear,bear,0.00,1366_nse_dnn_0.00_bear_10_n02132136_9232.JPEG
cornet-s,2,87,NaN,bear,bear,0.00,1367_nse_dnn_0.00_bear_10_n02134418_822.JPEG
cornet-s,2,88,NaN,bear,bear,0.00,1368_nse_dnn_0.00_bear_10_n02134418_838.JPEG
cornet-s,2,89,NaN,bear,bear,0.00,1369_nse_dnn_0.00_bear_10_n02134084_7559.JPEG
cornet-s,2,90,NaN,elephant,bear,0.00,1370_nse_dnn_0.00_bear_10_n02133161_656.JPEG
cornet-s,2,91,NaN,boat,boat,0.00,1371_nse_dnn_0.00_boat_10_n03662601_1885.JPEG
cornet-s,2,92,NaN,boat,boat,0.00,1372_nse_dnn_0.00_boat_10_n03662601_18953.JPEG
cornet-s,2,93,NaN,boat,boat,0.00,1373_nse_dnn_0.00_boat_10_n03344393_6914.JPEG
cornet-s,2,94,NaN,boat,boat,0.00,1374_nse_dnn_0.00_boat_10_n04273569_6048.JPEG
cornet-s,2,95,NaN,boat,boat,0.00,1375_nse_dnn_0.00_boat_10_n04612504_13034.JPEG
cornet-s,2,96,NaN,boat,boat,0.00,1376_nse_dnn_0.00_boat_10_n03662601_25458.JPEG
cornet-s,2,97,NaN,boat,boat,0.00,1377_nse_dnn_0.00_boat_10_n03662601_6241.JPEG
cornet-s,2,98,NaN,boat,boat,0.00,1378_nse_dnn_0.00_boat_10_n04273569_247.JPEG
cornet-s,2,99,NaN,boat,boat,0.00,1379_nse_dnn_0.00_boat_10_n04273569_3465.JPEG
cornet-s,2,100,NaN,boat,boat,0.00,1380_nse_dnn_0.00_boat_10_n04273569_5119.JPEG
cornet-s,2,101,NaN,bear,cat,0.00,1381_nse_dnn_0.00_cat_10_n02123597_11877.JPEG
cornet-s,2,102,NaN,cat,cat,0.00,1382_nse_dnn_0.00_cat_10_n02123394_2289.JPEG
cornet-s,2,103,NaN,cat,cat,0.00,1383_nse_dnn_0.00_cat_10_n02123394_1136.JPEG
cornet-s,2,104,NaN,chair,cat,0.00,1384_nse_dnn_0.00_cat_10_n02123045_2286.JPEG
cornet-s,2,105,NaN,cat,cat,0.00,1385_nse_dnn_0.00_cat_10_n02125311_22884.JPEG
cornet-s,2,106,NaN,cat,cat,0.00,1386_nse_dnn_0.00_cat_10_n02123045_432.JPEG
cornet-s,2,107,NaN,cat,cat,0.00,1387_nse_dnn_0.00_cat_10_n02123159_8079.JPEG
cornet-s,2,108,NaN,cat,cat,0.00,1388_nse_dnn_0.00_cat_10_n02123159_5856.JPEG
cornet-s,2,109,NaN,cat,cat,0.00,1389_nse_dnn_0.00_cat_10_n02123045_6245.JPEG
cornet-s,2,110,NaN,cat,cat,0.00,1390_nse_dnn_0.00_cat_10_n02123597_4826.JPEG
cornet-s,2,111,NaN,bottle,bottle,0.00,1391_nse_dnn_0.00_bottle_10_n03937543_5617.JPEG
cornet-s,2,112,NaN,bottle,bottle,0.00,1392_nse_dnn_0.00_bottle_10_n04560804_2266.JPEG
cornet-s,2,113,NaN,bottle,bottle,0.00,1393_nse_dnn_0.00_bottle_10_n03937543_5407.JPEG
cornet-s,2,114,NaN,bottle,bottle,0.00,1394_nse_dnn_0.00_bottle_10_n02823428_4247.JPEG
cornet-s,2,115,NaN,bottle,bottle,0.00,1395_nse_dnn_0.00_bottle_10_n04560804_30737.JPEG
cornet-s,2,116,NaN,bottle,bottle,0.00,1396_nse_dnn_0.00_bottle_10_n03983396_12337.JPEG
cornet-s,2,117,NaN,bottle,bottle,0.00,1397_nse_dnn_0.00_bottle_10_n04560804_14102.JPEG
cornet-s,2,118,NaN,knife,bottle,0.00,1398_nse_dnn_0.00_bottle_10_n03937543_10972.JPEG
cornet-s,2,119,NaN,bottle,bottle,0.00,1399_nse_dnn_0.00_bottle_10_n04579145_3133.JPEG
cornet-s,2,120,NaN,bottle,bottle,0.00,1400_nse_dnn_0.00_bottle_10_n04557648_777.JPEG
cornet-s,2,121,NaN,truck,truck,0.00,1401_nse_dnn_0.00_truck_10_n03417042_802.JPEG
cornet-s,2,122,NaN,truck,truck,0.00,1402_nse_dnn_0.00_truck_10_n03417042_910.JPEG
cornet-s,2,123,NaN,truck,truck,0.00,1403_nse_dnn_0.00_truck_10_n03417042_4980.JPEG
cornet-s,2,124,NaN,truck,truck,0.00,1404_nse_dnn_0.00_truck_10_n04467665_68475.JPEG
cornet-s,2,125,NaN,truck,truck,0.00,1405_nse_dnn_0.00_truck_10_n03417042_27231.JPEG
cornet-s,2,126,NaN,truck,truck,0.00,1406_nse_dnn_0.00_truck_10_n03417042_8076.JPEG
cornet-s,2,127,NaN,truck,truck,0.00,1407_nse_dnn_0.00_truck_10_n03417042_7764.JPEG
cornet-s,2,128,NaN,truck,truck,0.00,1408_nse_dnn_0.00_truck_10_n03417042_2514.JPEG
cornet-s,2,129,NaN,truck,truck,0.00,1409_nse_dnn_0.00_truck_10_n03796401_2025.JPEG
cornet-s,2,130,NaN,truck,truck,0.00,1410_nse_dnn_0.00_truck_10_n04467665_56594.JPEG
cornet-s,2,131,NaN,car,car,0.00,1411_nse_dnn_0.00_car_10_n04285008_11295.JPEG
cornet-s,2,132,NaN,car,car,0.00,1412_nse_dnn_0.00_car_10_n02814533_27902.JPEG
cornet-s,2,133,NaN,car,car,0.00,1413_nse_dnn_0.00_car_10_n04285008_4834.JPEG
cornet-s,2,134,NaN,car,car,0.00,1414_nse_dnn_0.00_car_10_n03100240_3207.JPEG
cornet-s,2,135,NaN,car,car,0.00,1415_nse_dnn_0.00_car_10_n04285008_12592.JPEG
cornet-s,2,136,NaN,car,car,0.00,1416_nse_dnn_0.00_car_10_n02814533_22822.JPEG
cornet-s,2,137,NaN,car,car,0.00,1417_nse_dnn_0.00_car_10_n03100240_7592.JPEG
cornet-s,2,138,NaN,car,car,0.00,1418_nse_dnn_0.00_car_10_n03100240_8453.JPEG
cornet-s,2,139,NaN,car,car,0.00,1419_nse_dnn_0.00_car_10_n03100240_9982.JPEG
cornet-s,2,140,NaN,truck,car,0.00,1420_nse_dnn_0.00_car_10_n02814533_7066.JPEG
cornet-s,2,141,NaN,bird,bird,0.00,1421_nse_dnn_0.00_bird_10_n01819313_7246.JPEG
cornet-s,2,142,NaN,bird,bird,0.00,1422_nse_dnn_0.00_bird_10_n01795545_7294.JPEG
cornet-s,2,143,NaN,chair,bird,0.00,1423_nse_dnn_0.00_bird_10_n02011460_8701.JPEG
cornet-s,2,144,NaN,bird,bird,0.00,1424_nse_dnn_0.00_bird_10_n01582220_8796.JPEG
cornet-s,2,145,NaN,bird,bird,0.00,1425_nse_dnn_0.00_bird_10_n01797886_12258.JPEG
cornet-s,2,146,NaN,bird,bird,0.00,1426_nse_dnn_0.00_bird_10_n02028035_20331.JPEG
cornet-s,2,147,NaN,bottle,bird,0.00,1427_nse_dnn_0.00_bird_10_n02002556_13366.JPEG
cornet-s,2,148,NaN,bird,bird,0.00,1428_nse_dnn_0.00_bird_10_n01537544_1632.JPEG
cornet-s,2,149,NaN,bird,bird,0.00,1429_nse_dnn_0.00_bird_10_n01860187_15246.JPEG
cornet-s,2,150,NaN,bird,bird,0.00,1430_nse_dnn_0.00_bird_10_n01798484_13121.JPEG
cornet-s,2,151,NaN,dog,dog,0.00,1431_nse_dnn_0.00_dog_10_n02113799_10074.JPEG
cornet-s,2,152,NaN,dog,dog,0.00,1432_nse_dnn_0.00_dog_10_n02102318_2395.JPEG
cornet-s,2,153,NaN,dog,dog,0.00,1433_nse_dnn_0.00_dog_10_n02106382_9577.JPEG
cornet-s,2,154,NaN,knife,dog,0.00,1434_nse_dnn_0.00_dog_10_n02105162_351.JPEG
cornet-s,2,155,NaN,bicycle,dog,0.00,1435_nse_dnn_0.00_dog_10_n02092002_9696.JPEG
cornet-s,2,156,NaN,dog,dog,0.00,1436_nse_dnn_0.00_dog_10_n02099601_5470.JPEG
cornet-s,2,157,NaN,dog,dog,0.00,1437_nse_dnn_0.00_dog_10_n02093754_3928.JPEG
cornet-s,2,158,NaN,dog,dog,0.00,1438_nse_dnn_0.00_dog_10_n02094433_22181.JPEG
cornet-s,2,159,NaN,dog,dog,0.00,1439_nse_dnn_0.00_dog_10_n02093991_193.JPEG
cornet-s,2,160,NaN,dog,dog,0.00,1440_nse_dnn_0.00_dog_10_n02097474_3347.JPEG
cornet-s,2,161,NaN,knife,knife,0.03,1441_nse_dnn_0.03_knife_10_n03041632_20832.JPEG
cornet-s,2,162,NaN,knife,knife,0.03,1442_nse_dnn_0.03_knife_10_n03041632_101810.JPEG
cornet-s,2,163,NaN,clock,knife,0.03,1443_nse_dnn_0.03_knife_10_n03041632_23087.JPEG
cornet-s,2,164,NaN,knife,knife,0.03,1444_nse_dnn_0.03_knife_10_n03041632_20662.JPEG
cornet-s,2,165,NaN,knife,knife,0.03,1445_nse_dnn_0.03_knife_10_n03041632_3005.JPEG
cornet-s,2,166,NaN,knife,knife,0.03,1446_nse_dnn_0.03_knife_10_n03041632_30079.JPEG
cornet-s,2,167,NaN,knife,knife,0.03,1447_nse_dnn_0.03_knife_10_n03041632_20576.JPEG
cornet-s,2,168,NaN,knife,knife,0.03,1448_nse_dnn_0.03_knife_10_n03041632_3717.JPEG
cornet-s,2,169,NaN,boat,knife,0.03,1449_nse_dnn_0.03_knife_10_n03041632_18304.JPEG
cornet-s,2,170,NaN,bottle,knife,0.03,1450_nse_dnn_0.03_knife_10_n03041632_86118.JPEG
cornet-s,2,171,NaN,keyboard,keyboard,0.03,1451_nse_dnn_0.03_keyboard_10_n03085013_7588.JPEG
cornet-s,2,172,NaN,clock,keyboard,0.03,1452_nse_dnn_0.03_keyboard_10_n03085013_24362.JPEG
cornet-s,2,173,NaN,keyboard,keyboard,0.03,1453_nse_dnn_0.03_keyboard_10_n04505470_5147.JPEG
cornet-s,2,174,NaN,keyboard,keyboard,0.03,1454_nse_dnn_0.03_keyboard_10_n03085013_2073.JPEG
cornet-s,2,175,NaN,keyboard,keyboard,0.03,1455_nse_dnn_0.03_keyboard_10_n03085013_19547.JPEG
cornet-s,2,176,NaN,airplane,keyboard,0.03,1456_nse_dnn_0.03_keyboard_10_n03085013_23254.JPEG
cornet-s,2,177,NaN,keyboard,keyboard,0.03,1457_nse_dnn_0.03_keyboard_10_n04505470_4505.JPEG
cornet-s,2,178,NaN,keyboard,keyboard,0.03,1458_nse_dnn_0.03_keyboard_10_n04505470_7335.JPEG
cornet-s,2,179,NaN,keyboard,keyboard,0.03,1459_nse_dnn_0.03_keyboard_10_n04505470_4492.JPEG
cornet-s,2,180,NaN,keyboard,keyboard,0.03,1460_nse_dnn_0.03_keyboard_10_n03085013_5579.JPEG
cornet-s,2,181,NaN,elephant,elephant,0.03,1461_nse_dnn_0.03_elephant_10_n02504013_2368.JPEG
cornet-s,2,182,NaN,chair,elephant,0.03,1462_nse_dnn_0.03_elephant_10_n02504458_5.JPEG
cornet-s,2,183,NaN,elephant,elephant,0.03,1463_nse_dnn_0.03_elephant_10_n02504013_4485.JPEG
cornet-s,2,184,NaN,elephant,elephant,0.03,1464_nse_dnn_0.03_elephant_10_n02504458_6.JPEG
cornet-s,2,185,NaN,elephant,elephant,0.03,1465_nse_dnn_0.03_elephant_10_n02504013_7322.JPEG
cornet-s,2,186,NaN,elephant,elephant,0.03,1466_nse_dnn_0.03_elephant_10_n02504013_1306.JPEG
cornet-s,2,187,NaN,elephant,elephant,0.03,1467_nse_dnn_0.03_elephant_10_n02504458_11884.JPEG
cornet-s,2,188,NaN,elephant,elephant,0.03,1468_nse_dnn_0.03_elephant_10_n02504013_3916.JPEG
cornet-s,2,189,NaN,elephant,elephant,0.03,1469_nse_dnn_0.03_elephant_10_n02504013_3258.JPEG
cornet-s,2,190,NaN,elephant,elephant,0.03,1470_nse_dnn_0.03_elephant_10_n02504013_3798.JPEG
cornet-s,2,191,NaN,bicycle,bicycle,0.03,1471_nse_dnn_0.03_bicycle_10_n03792782_7331.JPEG
cornet-s,2,192,NaN,bicycle,bicycle,0.03,1472_nse_dnn_0.03_bicycle_10_n02835271_3677.JPEG
cornet-s,2,193,NaN,bicycle,bicycle,0.03,1473_nse_dnn_0.03_bicycle_10_n03792782_29509.JPEG
cornet-s,2,194,NaN,bicycle,bicycle,0.03,1474_nse_dnn_0.03_bicycle_10_n03792782_11034.JPEG
cornet-s,2,195,NaN,bicycle,bicycle,0.03,1475_nse_dnn_0.03_bicycle_10_n02835271_8830.JPEG
cornet-s,2,196,NaN,bicycle,bicycle,0.03,1476_nse_dnn_0.03_bicycle_10_n02835271_13551.JPEG
cornet-s,2,197,NaN,bicycle,bicycle,0.03,1477_nse_dnn_0.03_bicycle_10_n03792782_32341.JPEG
cornet-s,2,198,NaN,bicycle,bicycle,0.03,1478_nse_dnn_0.03_bicycle_10_n03792782_10638.JPEG
cornet-s,2,199,NaN,bicycle,bicycle,0.03,1479_nse_dnn_0.03_bicycle_10_n02835271_10822.JPEG
cornet-s,2,200,NaN,bicycle,bicycle,0.03,1480_nse_dnn_0.03_bicycle_10_n03792782_7657.JPEG
cornet-s,2,201,NaN,airplane,airplane,0.03,1481_nse_dnn_0.03_airplane_10_n02690373_2941.JPEG
cornet-s,2,202,NaN,airplane,airplane,0.03,1482_nse_dnn_0.03_airplane_10_n02690373_1044.JPEG
cornet-s,2,203,NaN,airplane,airplane,0.03,1483_nse_dnn_0.03_airplane_10_n02690373_5632.JPEG
cornet-s,2,204,NaN,airplane,airplane,0.03,1484_nse_dnn_0.03_airplane_10_n02690373_2724.JPEG
cornet-s,2,205,NaN,airplane,airplane,0.03,1485_nse_dnn_0.03_airplane_10_n02690373_7530.JPEG
cornet-s,2,206,NaN,boat,airplane,0.03,1486_nse_dnn_0.03_airplane_10_n02690373_7718.JPEG
cornet-s,2,207,NaN,airplane,airplane,0.03,1487_nse_dnn_0.03_airplane_10_n02690373_10455.JPEG
cornet-s,2,208,NaN,airplane,airplane,0.03,1488_nse_dnn_0.03_airplane_10_n02690373_4066.JPEG
cornet-s,2,209,NaN,airplane,airplane,0.03,1489_nse_dnn_0.03_airplane_10_n02690373_18845.JPEG
cornet-s,2,210,NaN,airplane,airplane,0.03,1490_nse_dnn_0.03_airplane_10_n02690373_2068.JPEG
cornet-s,2,211,NaN,clock,clock,0.03,1491_nse_dnn_0.03_clock_10_n04548280_487.JPEG
cornet-s,2,212,NaN,clock,clock,0.03,1492_nse_dnn_0.03_clock_10_n04548280_5286.JPEG
cornet-s,2,213,NaN,clock,clock,0.03,1493_nse_dnn_0.03_clock_10_n02708093_7143.JPEG
cornet-s,2,214,NaN,clock,clock,0.03,1494_nse_dnn_0.03_clock_10_n02708093_7105.JPEG
cornet-s,2,215,NaN,knife,clock,0.03,1495_nse_dnn_0.03_clock_10_n03196217_4541.JPEG
cornet-s,2,216,NaN,clock,clock,0.03,1496_nse_dnn_0.03_clock_10_n02708093_2778.JPEG
cornet-s,2,217,NaN,clock,clock,0.03,1497_nse_dnn_0.03_clock_10_n03196217_4840.JPEG
cornet-s,2,218,NaN,clock,clock,0.03,1498_nse_dnn_0.03_clock_10_n04548280_1438.JPEG
cornet-s,2,219,NaN,clock,clock,0.03,1499_nse_dnn_0.03_clock_10_n02708093_1701.JPEG
cornet-s,2,220,NaN,clock,clock,0.03,1500_nse_dnn_0.03_clock_10_n02708093_483.JPEG
cornet-s,2,221,NaN,oven,oven,0.03,1501_nse_dnn_0.03_oven_10_n04111531_6899.JPEG
cornet-s,2,222,NaN,bottle,oven,0.03,1502_nse_dnn_0.03_oven_10_n04111531_9304.JPEG
cornet-s,2,223,NaN,chair,oven,0.03,1503_nse_dnn_0.03_oven_10_n04111531_689.JPEG
cornet-s,2,224,NaN,chair,oven,0.03,1504_nse_dnn_0.03_oven_10_n04111531_3126.JPEG
cornet-s,2,225,NaN,chair,oven,0.03,1505_nse_dnn_0.03_oven_10_n04111531_10749.JPEG
cornet-s,2,226,NaN,bear,oven,0.03,1506_nse_dnn_0.03_oven_10_n04111531_12308.JPEG
cornet-s,2,227,NaN,oven,oven,0.03,1507_nse_dnn_0.03_oven_10_n04111531_11260.JPEG
cornet-s,2,228,NaN,knife,oven,0.03,1508_nse_dnn_0.03_oven_10_n04111531_498.JPEG
cornet-s,2,229,NaN,knife,oven,0.03,1509_nse_dnn_0.03_oven_10_n04111531_2650.JPEG
cornet-s,2,230,NaN,oven,oven,0.03,1510_nse_dnn_0.03_oven_10_n04111531_2937.JPEG
cornet-s,2,231,NaN,truck,chair,0.03,1511_nse_dnn_0.03_chair_10_n04099969_4049.JPEG
cornet-s,2,232,NaN,chair,chair,0.03,1512_nse_dnn_0.03_chair_10_n04099969_24309.JPEG
cornet-s,2,233,NaN,chair,chair,0.03,1513_nse_dnn_0.03_chair_10_n03376595_4826.JPEG
cornet-s,2,234,NaN,chair,chair,0.03,1514_nse_dnn_0.03_chair_10_n04099969_3900.JPEG
cornet-s,2,235,NaN,chair,chair,0.03,1515_nse_dnn_0.03_chair_10_n03376595_15468.JPEG
cornet-s,2,236,NaN,chair,chair,0.03,1516_nse_dnn_0.03_chair_10_n04099969_37247.JPEG
cornet-s,2,237,NaN,chair,chair,0.03,1517_nse_dnn_0.03_chair_10_n02791124_1986.JPEG
cornet-s,2,238,NaN,airplane,chair,0.03,1518_nse_dnn_0.03_chair_10_n03376595_16362.JPEG
cornet-s,2,239,NaN,chair,chair,0.03,1519_nse_dnn_0.03_chair_10_n03376595_9610.JPEG
cornet-s,2,240,NaN,chair,chair,0.03,1520_nse_dnn_0.03_chair_10_n04099969_8507.JPEG
cornet-s,2,241,NaN,knife,bear,0.03,1521_nse_dnn_0.03_bear_10_n02134418_3942.JPEG
cornet-s,2,242,NaN,bear,bear,0.03,1522_nse_dnn_0.03_bear_10_n02133161_14053.JPEG
cornet-s,2,243,NaN,bottle,bear,0.03,1523_nse_dnn_0.03_bear_10_n02134084_1694.JPEG
cornet-s,2,244,NaN,bear,bear,0.03,1524_nse_dnn_0.03_bear_10_n02133161_19341.JPEG
cornet-s,2,245,NaN,bear,bear,0.03,1525_nse_dnn_0.03_bear_10_n02132136_4021.JPEG
cornet-s,2,246,NaN,elephant,bear,0.03,1526_nse_dnn_0.03_bear_10_n02132136_24002.JPEG
cornet-s,2,247,NaN,bear,bear,0.03,1527_nse_dnn_0.03_bear_10_n02134084_1406.JPEG
cornet-s,2,248,NaN,bear,bear,0.03,1528_nse_dnn_0.03_bear_10_n02132136_30356.JPEG
cornet-s,2,249,NaN,bear,bear,0.03,1529_nse_dnn_0.03_bear_10_n02134418_3756.JPEG
cornet-s,2,250,NaN,bear,bear,0.03,1530_nse_dnn_0.03_bear_10_n02133161_16115.JPEG
cornet-s,2,251,NaN,boat,boat,0.03,1531_nse_dnn_0.03_boat_10_n04612504_16016.JPEG
cornet-s,2,252,NaN,boat,boat,0.03,1532_nse_dnn_0.03_boat_10_n03344393_15744.JPEG
cornet-s,2,253,NaN,boat,boat,0.03,1533_nse_dnn_0.03_boat_10_n02951358_11778.JPEG
cornet-s,2,254,NaN,boat,boat,0.03,1534_nse_dnn_0.03_boat_10_n04612504_1500.JPEG
cornet-s,2,255,NaN,boat,boat,0.03,1535_nse_dnn_0.03_boat_10_n02951358_4311.JPEG
cornet-s,2,256,NaN,boat,boat,0.03,1536_nse_dnn_0.03_boat_10_n04273569_4136.JPEG
cornet-s,2,257,NaN,boat,boat,0.03,1537_nse_dnn_0.03_boat_10_n02951358_26579.JPEG
cornet-s,2,258,NaN,boat,boat,0.03,1538_nse_dnn_0.03_boat_10_n03662601_30161.JPEG
cornet-s,2,259,NaN,boat,boat,0.03,1539_nse_dnn_0.03_boat_10_n03344393_1506.JPEG
cornet-s,2,260,NaN,boat,boat,0.03,1540_nse_dnn_0.03_boat_10_n02951358_10017.JPEG
cornet-s,2,261,NaN,cat,cat,0.03,1541_nse_dnn_0.03_cat_10_n02123597_6864.JPEG
cornet-s,2,262,NaN,cat,cat,0.03,1542_nse_dnn_0.03_cat_10_n02124075_1430.JPEG
cornet-s,2,263,NaN,cat,cat,0.03,1543_nse_dnn_0.03_cat_10_n02125311_19819.JPEG
cornet-s,2,264,NaN,cat,cat,0.03,1544_nse_dnn_0.03_cat_10_n02123045_12655.JPEG
cornet-s,2,265,NaN,cat,cat,0.03,1545_nse_dnn_0.03_cat_10_n02123597_8523.JPEG
cornet-s,2,266,NaN,cat,cat,0.03,1546_nse_dnn_0.03_cat_10_n02123394_730.JPEG
cornet-s,2,267,NaN,cat,cat,0.03,1547_nse_dnn_0.03_cat_10_n02123597_1426.JPEG
cornet-s,2,268,NaN,bicycle,cat,0.03,1548_nse_dnn_0.03_cat_10_n02125311_9061.JPEG
cornet-s,2,269,NaN,cat,cat,0.03,1549_nse_dnn_0.03_cat_10_n02123597_5049.JPEG
cornet-s,2,270,NaN,cat,cat,0.03,1550_nse_dnn_0.03_cat_10_n02123597_14725.JPEG
cornet-s,2,271,NaN,chair,bottle,0.03,1551_nse_dnn_0.03_bottle_10_n03983396_1856.JPEG
cornet-s,2,272,NaN,bottle,bottle,0.03,1552_nse_dnn_0.03_bottle_10_n04591713_2666.JPEG
cornet-s,2,273,NaN,clock,bottle,0.03,1553_nse_dnn_0.03_bottle_10_n04591713_5295.JPEG
cornet-s,2,274,NaN,bottle,bottle,0.03,1554_nse_dnn_0.03_bottle_10_n03937543_11284.JPEG
cornet-s,2,275,NaN,knife,bottle,0.03,1555_nse_dnn_0.03_bottle_10_n04591713_6704.JPEG
cornet-s,2,276,NaN,bottle,bottle,0.03,1556_nse_dnn_0.03_bottle_10_n02823428_4623.JPEG
cornet-s,2,277,NaN,bottle,bottle,0.03,1557_nse_dnn_0.03_bottle_10_n03983396_5694.JPEG
cornet-s,2,278,NaN,bottle,bottle,0.03,1558_nse_dnn_0.03_bottle_10_n04591713_3020.JPEG
cornet-s,2,279,NaN,bottle,bottle,0.03,1559_nse_dnn_0.03_bottle_10_n04591713_4344.JPEG
cornet-s,2,280,NaN,bottle,bottle,0.03,1560_nse_dnn_0.03_bottle_10_n02823428_14023.JPEG
cornet-s,2,281,NaN,airplane,truck,0.03,1561_nse_dnn_0.03_truck_10_n04467665_22974.JPEG
cornet-s,2,282,NaN,truck,truck,0.03,1562_nse_dnn_0.03_truck_10_n04467665_37526.JPEG
cornet-s,2,283,NaN,truck,truck,0.03,1563_nse_dnn_0.03_truck_10_n03417042_6317.JPEG
cornet-s,2,284,NaN,truck,truck,0.03,1564_nse_dnn_0.03_truck_10_n03417042_3907.JPEG
cornet-s,2,285,NaN,chair,truck,0.03,1565_nse_dnn_0.03_truck_10_n03796401_6607.JPEG
cornet-s,2,286,NaN,truck,truck,0.03,1566_nse_dnn_0.03_truck_10_n03417042_22866.JPEG
cornet-s,2,287,NaN,truck,truck,0.03,1567_nse_dnn_0.03_truck_10_n04467665_32885.JPEG
cornet-s,2,288,NaN,airplane,truck,0.03,1568_nse_dnn_0.03_truck_10_n04467665_37152.JPEG
cornet-s,2,289,NaN,truck,truck,0.03,1569_nse_dnn_0.03_truck_10_n04467665_69440.JPEG
cornet-s,2,290,NaN,truck,truck,0.03,1570_nse_dnn_0.03_truck_10_n03796401_3026.JPEG
cornet-s,2,291,NaN,bottle,car,0.03,1571_nse_dnn_0.03_car_10_n04285008_9002.JPEG
cornet-s,2,292,NaN,car,car,0.03,1572_nse_dnn_0.03_car_10_n03100240_2255.JPEG
cornet-s,2,293,NaN,car,car,0.03,1573_nse_dnn_0.03_car_10_n03100240_3310.JPEG
cornet-s,2,294,NaN,car,car,0.03,1574_nse_dnn_0.03_car_10_n03100240_12714.JPEG
cornet-s,2,295,NaN,car,car,0.03,1575_nse_dnn_0.03_car_10_n03100240_9633.JPEG
cornet-s,2,296,NaN,car,car,0.03,1576_nse_dnn_0.03_car_10_n02814533_30383.JPEG
cornet-s,2,297,NaN,airplane,car,0.03,1577_nse_dnn_0.03_car_10_n02814533_5663.JPEG
cornet-s,2,298,NaN,car,car,0.03,1578_nse_dnn_0.03_car_10_n04285008_9270.JPEG
cornet-s,2,299,NaN,car,car,0.03,1579_nse_dnn_0.03_car_10_n04285008_15917.JPEG
cornet-s,2,300,NaN,chair,car,0.03,1580_nse_dnn_0.03_car_10_n04285008_1156.JPEG
cornet-s,2,301,NaN,elephant,bird,0.03,1581_nse_dnn_0.03_bird_10_n01819313_2154.JPEG
cornet-s,2,302,NaN,bird,bird,0.03,1582_nse_dnn_0.03_bird_10_n02056570_9456.JPEG
cornet-s,2,303,NaN,bird,bird,0.03,1583_nse_dnn_0.03_bird_10_n01531178_57776.JPEG
cornet-s,2,304,NaN,boat,bird,0.03,1584_nse_dnn_0.03_bird_10_n02018795_2311.JPEG
cornet-s,2,305,NaN,bird,bird,0.03,1585_nse_dnn_0.03_bird_10_n01795545_6114.JPEG
cornet-s,2,306,NaN,elephant,bird,0.03,1586_nse_dnn_0.03_bird_10_n01829413_13211.JPEG
cornet-s,2,307,NaN,bird,bird,0.03,1587_nse_dnn_0.03_bird_10_n02013706_1335.JPEG
cornet-s,2,308,NaN,cat,bird,0.03,1588_nse_dnn_0.03_bird_10_n01514859_5058.JPEG
cornet-s,2,309,NaN,boat,bird,0.03,1589_nse_dnn_0.03_bird_10_n02018207_9404.JPEG
cornet-s,2,310,NaN,bird,bird,0.03,1590_nse_dnn_0.03_bird_10_n02018795_5876.JPEG
cornet-s,2,311,NaN,bear,dog,0.03,1591_nse_dnn_0.03_dog_10_n02107683_376.JPEG
cornet-s,2,312,NaN,dog,dog,0.03,1592_nse_dnn_0.03_dog_10_n02091831_2751.JPEG
cornet-s,2,313,NaN,chair,dog,0.03,1593_nse_dnn_0.03_dog_10_n02113978_3799.JPEG
cornet-s,2,314,NaN,dog,dog,0.03,1594_nse_dnn_0.03_dog_10_n02099429_3400.JPEG
cornet-s,2,315,NaN,cat,dog,0.03,1595_nse_dnn_0.03_dog_10_n02106030_7689.JPEG
cornet-s,2,316,NaN,dog,dog,0.03,1596_nse_dnn_0.03_dog_10_n02094258_4691.JPEG
cornet-s,2,317,NaN,dog,dog,0.03,1597_nse_dnn_0.03_dog_10_n02090721_6330.JPEG
cornet-s,2,318,NaN,dog,dog,0.03,1598_nse_dnn_0.03_dog_10_n02107142_3327.JPEG
cornet-s,2,319,NaN,elephant,dog,0.03,1599_nse_dnn_0.03_dog_10_n02099429_5374.JPEG
cornet-s,2,320,NaN,dog,dog,0.03,1600_nse_dnn_0.03_dog_10_n02105505_819.JPEG
cornet-s,2,321,NaN,knife,knife,0.05,1601_nse_dnn_0.05_knife_10_n03041632_44019.JPEG
cornet-s,2,322,NaN,knife,knife,0.05,1602_nse_dnn_0.05_knife_10_n03041632_5640.JPEG
cornet-s,2,323,NaN,chair,knife,0.05,1603_nse_dnn_0.05_knife_10_n03041632_92637.JPEG
cornet-s,2,324,NaN,knife,knife,0.05,1604_nse_dnn_0.05_knife_10_n03041632_29684.JPEG
cornet-s,2,325,NaN,clock,knife,0.05,1605_nse_dnn_0.05_knife_10_n03041632_15299.JPEG
cornet-s,2,326,NaN,knife,knife,0.05,1606_nse_dnn_0.05_knife_10_n03041632_18995.JPEG
cornet-s,2,327,NaN,knife,knife,0.05,1607_nse_dnn_0.05_knife_10_n03041632_4879.JPEG
cornet-s,2,328,NaN,chair,knife,0.05,1608_nse_dnn_0.05_knife_10_n03041632_22214.JPEG
cornet-s,2,329,NaN,knife,knife,0.05,1609_nse_dnn_0.05_knife_10_n03041632_105081.JPEG
cornet-s,2,330,NaN,knife,knife,0.05,1610_nse_dnn_0.05_knife_10_n03041632_30248.JPEG
cornet-s,2,331,NaN,keyboard,keyboard,0.05,1611_nse_dnn_0.05_keyboard_10_n04505470_989.JPEG
cornet-s,2,332,NaN,chair,keyboard,0.05,1612_nse_dnn_0.05_keyboard_10_n04505470_4627.JPEG
cornet-s,2,333,NaN,keyboard,keyboard,0.05,1613_nse_dnn_0.05_keyboard_10_n04505470_4636.JPEG
cornet-s,2,334,NaN,keyboard,keyboard,0.05,1614_nse_dnn_0.05_keyboard_10_n04505470_4490.JPEG
cornet-s,2,335,NaN,clock,keyboard,0.05,1615_nse_dnn_0.05_keyboard_10_n03085013_23267.JPEG
cornet-s,2,336,NaN,keyboard,keyboard,0.05,1616_nse_dnn_0.05_keyboard_10_n03085013_6963.JPEG
cornet-s,2,337,NaN,keyboard,keyboard,0.05,1617_nse_dnn_0.05_keyboard_10_n03085013_10659.JPEG
cornet-s,2,338,NaN,keyboard,keyboard,0.05,1618_nse_dnn_0.05_keyboard_10_n03085013_21148.JPEG
cornet-s,2,339,NaN,boat,keyboard,0.05,1619_nse_dnn_0.05_keyboard_10_n03085013_7091.JPEG
cornet-s,2,340,NaN,keyboard,keyboard,0.05,1620_nse_dnn_0.05_keyboard_10_n03085013_20220.JPEG
cornet-s,2,341,NaN,elephant,elephant,0.05,1621_nse_dnn_0.05_elephant_10_n02504458_4849.JPEG
cornet-s,2,342,NaN,cat,elephant,0.05,1622_nse_dnn_0.05_elephant_10_n02504458_2900.JPEG
cornet-s,2,343,NaN,elephant,elephant,0.05,1623_nse_dnn_0.05_elephant_10_n02504013_15866.JPEG
cornet-s,2,344,NaN,elephant,elephant,0.05,1624_nse_dnn_0.05_elephant_10_n02504013_4523.JPEG
cornet-s,2,345,NaN,elephant,elephant,0.05,1625_nse_dnn_0.05_elephant_10_n02504013_2968.JPEG
cornet-s,2,346,NaN,boat,elephant,0.05,1626_nse_dnn_0.05_elephant_10_n02504458_7831.JPEG
cornet-s,2,347,NaN,elephant,elephant,0.05,1627_nse_dnn_0.05_elephant_10_n02504458_2103.JPEG
cornet-s,2,348,NaN,elephant,elephant,0.05,1628_nse_dnn_0.05_elephant_10_n02504013_4044.JPEG
cornet-s,2,349,NaN,elephant,elephant,0.05,1629_nse_dnn_0.05_elephant_10_n02504013_7883.JPEG
cornet-s,2,350,NaN,elephant,elephant,0.05,1630_nse_dnn_0.05_elephant_10_n02504458_12352.JPEG
cornet-s,2,351,NaN,bicycle,bicycle,0.05,1631_nse_dnn_0.05_bicycle_10_n03792782_16837.JPEG
cornet-s,2,352,NaN,chair,bicycle,0.05,1632_nse_dnn_0.05_bicycle_10_n02835271_8034.JPEG
cornet-s,2,353,NaN,bicycle,bicycle,0.05,1633_nse_dnn_0.05_bicycle_10_n02835271_5602.JPEG
cornet-s,2,354,NaN,bicycle,bicycle,0.05,1634_nse_dnn_0.05_bicycle_10_n02835271_8521.JPEG
cornet-s,2,355,NaN,boat,bicycle,0.05,1635_nse_dnn_0.05_bicycle_10_n03792782_3333.JPEG
cornet-s,2,356,NaN,chair,bicycle,0.05,1636_nse_dnn_0.05_bicycle_10_n02835271_13542.JPEG
cornet-s,2,357,NaN,clock,bicycle,0.05,1637_nse_dnn_0.05_bicycle_10_n03792782_52540.JPEG
cornet-s,2,358,NaN,bicycle,bicycle,0.05,1638_nse_dnn_0.05_bicycle_10_n03792782_2267.JPEG
cornet-s,2,359,NaN,bicycle,bicycle,0.05,1639_nse_dnn_0.05_bicycle_10_n03792782_51838.JPEG
cornet-s,2,360,NaN,bicycle,bicycle,0.05,1640_nse_dnn_0.05_bicycle_10_n03792782_1933.JPEG
cornet-s,2,361,NaN,airplane,airplane,0.05,1641_nse_dnn_0.05_airplane_10_n02690373_181.JPEG
cornet-s,2,362,NaN,airplane,airplane,0.05,1642_nse_dnn_0.05_airplane_10_n02690373_1828.JPEG
cornet-s,2,363,NaN,truck,airplane,0.05,1643_nse_dnn_0.05_airplane_10_n02690373_971.JPEG
cornet-s,2,364,NaN,boat,airplane,0.05,1644_nse_dnn_0.05_airplane_10_n02690373_8350.JPEG
cornet-s,2,365,NaN,airplane,airplane,0.05,1645_nse_dnn_0.05_airplane_10_n02690373_10374.JPEG
cornet-s,2,366,NaN,airplane,airplane,0.05,1646_nse_dnn_0.05_airplane_10_n02690373_4691.JPEG
cornet-s,2,367,NaN,airplane,airplane,0.05,1647_nse_dnn_0.05_airplane_10_n02690373_6362.JPEG
cornet-s,2,368,NaN,airplane,airplane,0.05,1648_nse_dnn_0.05_airplane_10_n02690373_4866.JPEG
cornet-s,2,369,NaN,airplane,airplane,0.05,1649_nse_dnn_0.05_airplane_10_n02690373_9743.JPEG
cornet-s,2,370,NaN,airplane,airplane,0.05,1650_nse_dnn_0.05_airplane_10_n02690373_736.JPEG
cornet-s,2,371,NaN,clock,clock,0.05,1651_nse_dnn_0.05_clock_10_n03196217_7634.JPEG
cornet-s,2,372,NaN,clock,clock,0.05,1652_nse_dnn_0.05_clock_10_n03196217_8070.JPEG
cornet-s,2,373,NaN,clock,clock,0.05,1653_nse_dnn_0.05_clock_10_n02708093_7535.JPEG
cornet-s,2,374,NaN,bicycle,clock,0.05,1654_nse_dnn_0.05_clock_10_n04548280_3128.JPEG
cornet-s,2,375,NaN,clock,clock,0.05,1655_nse_dnn_0.05_clock_10_n04548280_9218.JPEG
cornet-s,2,376,NaN,clock,clock,0.05,1656_nse_dnn_0.05_clock_10_n04548280_2170.JPEG
cornet-s,2,377,NaN,clock,clock,0.05,1657_nse_dnn_0.05_clock_10_n03196217_3100.JPEG
cornet-s,2,378,NaN,keyboard,clock,0.05,1658_nse_dnn_0.05_clock_10_n03196217_6467.JPEG
cornet-s,2,379,NaN,clock,clock,0.05,1659_nse_dnn_0.05_clock_10_n02708093_9.JPEG
cornet-s,2,380,NaN,clock,clock,0.05,1660_nse_dnn_0.05_clock_10_n02708093_3532.JPEG
cornet-s,2,381,NaN,airplane,oven,0.05,1661_nse_dnn_0.05_oven_10_n04111531_2456.JPEG
cornet-s,2,382,NaN,bear,oven,0.05,1662_nse_dnn_0.05_oven_10_n04111531_10446.JPEG
cornet-s,2,383,NaN,clock,oven,0.05,1663_nse_dnn_0.05_oven_10_n04111531_6629.JPEG
cornet-s,2,384,NaN,chair,oven,0.05,1664_nse_dnn_0.05_oven_10_n04111531_21931.JPEG
cornet-s,2,385,NaN,bottle,oven,0.05,1665_nse_dnn_0.05_oven_10_n04111531_11669.JPEG
cornet-s,2,386,NaN,cat,oven,0.05,1666_nse_dnn_0.05_oven_10_n04111531_21173.JPEG
cornet-s,2,387,NaN,boat,oven,0.05,1667_nse_dnn_0.05_oven_10_n04111531_10583.JPEG
cornet-s,2,388,NaN,chair,oven,0.05,1668_nse_dnn_0.05_oven_10_n04111531_8687.JPEG
cornet-s,2,389,NaN,oven,oven,0.05,1669_nse_dnn_0.05_oven_10_n04111531_8421.JPEG
cornet-s,2,390,NaN,oven,oven,0.05,1670_nse_dnn_0.05_oven_10_n04111531_4662.JPEG
cornet-s,2,391,NaN,chair,chair,0.05,1671_nse_dnn_0.05_chair_10_n04429376_3468.JPEG
cornet-s,2,392,NaN,chair,chair,0.05,1672_nse_dnn_0.05_chair_10_n04099969_3161.JPEG
cornet-s,2,393,NaN,chair,chair,0.05,1673_nse_dnn_0.05_chair_10_n03376595_10873.JPEG
cornet-s,2,394,NaN,chair,chair,0.05,1674_nse_dnn_0.05_chair_10_n04099969_52.JPEG
cornet-s,2,395,NaN,chair,chair,0.05,1675_nse_dnn_0.05_chair_10_n03376595_14087.JPEG
cornet-s,2,396,NaN,chair,chair,0.05,1676_nse_dnn_0.05_chair_10_n04099969_19605.JPEG
cornet-s,2,397,NaN,chair,chair,0.05,1677_nse_dnn_0.05_chair_10_n04099969_19411.JPEG
cornet-s,2,398,NaN,chair,chair,0.05,1678_nse_dnn_0.05_chair_10_n04099969_2408.JPEG
cornet-s,2,399,NaN,chair,chair,0.05,1679_nse_dnn_0.05_chair_10_n03376595_262.JPEG
cornet-s,2,400,NaN,chair,chair,0.05,1680_nse_dnn_0.05_chair_10_n02791124_807.JPEG
cornet-s,2,401,NaN,bear,bear,0.05,1681_nse_dnn_0.05_bear_10_n02132136_26027.JPEG
cornet-s,2,402,NaN,bear,bear,0.05,1682_nse_dnn_0.05_bear_10_n02134418_1967.JPEG
cornet-s,2,403,NaN,clock,bear,0.05,1683_nse_dnn_0.05_bear_10_n02134084_2406.JPEG
cornet-s,2,404,NaN,elephant,bear,0.05,1684_nse_dnn_0.05_bear_10_n02132136_5367.JPEG
cornet-s,2,405,NaN,bear,bear,0.05,1685_nse_dnn_0.05_bear_10_n02134418_1330.JPEG
cornet-s,2,406,NaN,bear,bear,0.05,1686_nse_dnn_0.05_bear_10_n02132136_20883.JPEG
cornet-s,2,407,NaN,bear,bear,0.05,1687_nse_dnn_0.05_bear_10_n02134084_4590.JPEG
cornet-s,2,408,NaN,bear,bear,0.05,1688_nse_dnn_0.05_bear_10_n02133161_7173.JPEG
cornet-s,2,409,NaN,bear,bear,0.05,1689_nse_dnn_0.05_bear_10_n02134084_6049.JPEG
cornet-s,2,410,NaN,cat,bear,0.05,1690_nse_dnn_0.05_bear_10_n02133161_3766.JPEG
cornet-s,2,411,NaN,boat,boat,0.05,1691_nse_dnn_0.05_boat_10_n03344393_7614.JPEG
cornet-s,2,412,NaN,airplane,boat,0.05,1692_nse_dnn_0.05_boat_10_n03344393_9235.JPEG
cornet-s,2,413,NaN,boat,boat,0.05,1693_nse_dnn_0.05_boat_10_n04612504_13309.JPEG
cornet-s,2,414,NaN,boat,boat,0.05,1694_nse_dnn_0.05_boat_10_n03344393_2142.JPEG
cornet-s,2,415,NaN,boat,boat,0.05,1695_nse_dnn_0.05_boat_10_n03344393_728.JPEG
cornet-s,2,416,NaN,boat,boat,0.05,1696_nse_dnn_0.05_boat_10_n04273569_31194.JPEG
cornet-s,2,417,NaN,boat,boat,0.05,1697_nse_dnn_0.05_boat_10_n03344393_13085.JPEG
cornet-s,2,418,NaN,boat,boat,0.05,1698_nse_dnn_0.05_boat_10_n04273569_32553.JPEG
cornet-s,2,419,NaN,boat,boat,0.05,1699_nse_dnn_0.05_boat_10_n03344393_5757.JPEG
cornet-s,2,420,NaN,boat,boat,0.05,1700_nse_dnn_0.05_boat_10_n02951358_35213.JPEG
cornet-s,2,421,NaN,bear,cat,0.05,1701_nse_dnn_0.05_cat_10_n02124075_12229.JPEG
cornet-s,2,422,NaN,cat,cat,0.05,1702_nse_dnn_0.05_cat_10_n02125311_16840.JPEG
cornet-s,2,423,NaN,cat,cat,0.05,1703_nse_dnn_0.05_cat_10_n02123045_13363.JPEG
cornet-s,2,424,NaN,cat,cat,0.05,1704_nse_dnn_0.05_cat_10_n02123394_635.JPEG
cornet-s,2,425,NaN,cat,cat,0.05,1705_nse_dnn_0.05_cat_10_n02123045_14135.JPEG
cornet-s,2,426,NaN,cat,cat,0.05,1706_nse_dnn_0.05_cat_10_n02125311_18483.JPEG
cornet-s,2,427,NaN,cat,cat,0.05,1707_nse_dnn_0.05_cat_10_n02123159_1416.JPEG
cornet-s,2,428,NaN,cat,cat,0.05,1708_nse_dnn_0.05_cat_10_n02123597_222.JPEG
cornet-s,2,429,NaN,cat,cat,0.05,1709_nse_dnn_0.05_cat_10_n02123159_2137.JPEG
cornet-s,2,430,NaN,cat,cat,0.05,1710_nse_dnn_0.05_cat_10_n02124075_1819.JPEG
cornet-s,2,431,NaN,elephant,bottle,0.05,1711_nse_dnn_0.05_bottle_10_n04557648_2601.JPEG
cornet-s,2,432,NaN,bottle,bottle,0.05,1712_nse_dnn_0.05_bottle_10_n03983396_5911.JPEG
cornet-s,2,433,NaN,clock,bottle,0.05,1713_nse_dnn_0.05_bottle_10_n03983396_8908.JPEG
cornet-s,2,434,NaN,bottle,bottle,0.05,1714_nse_dnn_0.05_bottle_10_n03937543_1802.JPEG
cornet-s,2,435,NaN,bottle,bottle,0.05,1715_nse_dnn_0.05_bottle_10_n04557648_3574.JPEG
cornet-s,2,436,NaN,chair,bottle,0.05,1716_nse_dnn_0.05_bottle_10_n04591713_6851.JPEG
cornet-s,2,437,NaN,bottle,bottle,0.05,1717_nse_dnn_0.05_bottle_10_n04591713_3776.JPEG
cornet-s,2,438,NaN,bottle,bottle,0.05,1718_nse_dnn_0.05_bottle_10_n04579145_1054.JPEG
cornet-s,2,439,NaN,knife,bottle,0.05,1719_nse_dnn_0.05_bottle_10_n03937543_4505.JPEG
cornet-s,2,440,NaN,chair,bottle,0.05,1720_nse_dnn_0.05_bottle_10_n04560804_14781.JPEG
cornet-s,2,441,NaN,truck,truck,0.05,1721_nse_dnn_0.05_truck_10_n03417042_104.JPEG
cornet-s,2,442,NaN,truck,truck,0.05,1722_nse_dnn_0.05_truck_10_n03417042_2978.JPEG
cornet-s,2,443,NaN,truck,truck,0.05,1723_nse_dnn_0.05_truck_10_n03417042_10754.JPEG
cornet-s,2,444,NaN,truck,truck,0.05,1724_nse_dnn_0.05_truck_10_n03417042_3807.JPEG
cornet-s,2,445,NaN,truck,truck,0.05,1725_nse_dnn_0.05_truck_10_n04467665_2044.JPEG
cornet-s,2,446,NaN,truck,truck,0.05,1726_nse_dnn_0.05_truck_10_n03417042_7191.JPEG
cornet-s,2,447,NaN,truck,truck,0.05,1727_nse_dnn_0.05_truck_10_n03796401_13445.JPEG
cornet-s,2,448,NaN,airplane,truck,0.05,1728_nse_dnn_0.05_truck_10_n03417042_924.JPEG
cornet-s,2,449,NaN,truck,truck,0.05,1729_nse_dnn_0.05_truck_10_n04467665_4037.JPEG
cornet-s,2,450,NaN,clock,truck,0.05,1730_nse_dnn_0.05_truck_10_n03796401_7371.JPEG
cornet-s,2,451,NaN,car,car,0.05,1731_nse_dnn_0.05_car_10_n02814533_73210.JPEG
cornet-s,2,452,NaN,car,car,0.05,1732_nse_dnn_0.05_car_10_n02814533_1823.JPEG
cornet-s,2,453,NaN,knife,car,0.05,1733_nse_dnn_0.05_car_10_n04285008_609.JPEG
cornet-s,2,454,NaN,car,car,0.05,1734_nse_dnn_0.05_car_10_n04285008_7428.JPEG
cornet-s,2,455,NaN,car,car,0.05,1735_nse_dnn_0.05_car_10_n03100240_16861.JPEG
cornet-s,2,456,NaN,car,car,0.05,1736_nse_dnn_0.05_car_10_n02814533_4166.JPEG
cornet-s,2,457,NaN,car,car,0.05,1737_nse_dnn_0.05_car_10_n02814533_46196.JPEG
cornet-s,2,458,NaN,truck,car,0.05,1738_nse_dnn_0.05_car_10_n04285008_11910.JPEG
cornet-s,2,459,NaN,truck,car,0.05,1739_nse_dnn_0.05_car_10_n03100240_21334.JPEG
cornet-s,2,460,NaN,car,car,0.05,1740_nse_dnn_0.05_car_10_n03100240_3969.JPEG
cornet-s,2,461,NaN,boat,bird,0.05,1741_nse_dnn_0.05_bird_10_n01843065_3094.JPEG
cornet-s,2,462,NaN,elephant,bird,0.05,1742_nse_dnn_0.05_bird_10_n01820546_7061.JPEG
cornet-s,2,463,NaN,clock,bird,0.05,1743_nse_dnn_0.05_bird_10_n01820546_2332.JPEG
cornet-s,2,464,NaN,bird,bird,0.05,1744_nse_dnn_0.05_bird_10_n01560419_7876.JPEG
cornet-s,2,465,NaN,elephant,bird,0.05,1745_nse_dnn_0.05_bird_10_n01582220_9973.JPEG
cornet-s,2,466,NaN,cat,bird,0.05,1746_nse_dnn_0.05_bird_10_n01560419_10015.JPEG
cornet-s,2,467,NaN,elephant,bird,0.05,1747_nse_dnn_0.05_bird_10_n01796340_6675.JPEG
cornet-s,2,468,NaN,chair,bird,0.05,1748_nse_dnn_0.05_bird_10_n02013706_14208.JPEG
cornet-s,2,469,NaN,boat,bird,0.05,1749_nse_dnn_0.05_bird_10_n02051845_14484.JPEG
cornet-s,2,470,NaN,bird,bird,0.05,1750_nse_dnn_0.05_bird_10_n01843065_4451.JPEG
cornet-s,2,471,NaN,dog,dog,0.05,1751_nse_dnn_0.05_dog_10_n02101388_6190.JPEG
cornet-s,2,472,NaN,bicycle,dog,0.05,1752_nse_dnn_0.05_dog_10_n02110185_6948.JPEG
cornet-s,2,473,NaN,cat,dog,0.05,1753_nse_dnn_0.05_dog_10_n02107312_2784.JPEG
cornet-s,2,474,NaN,cat,dog,0.05,1754_nse_dnn_0.05_dog_10_n02101556_5373.JPEG
cornet-s,2,475,NaN,bear,dog,0.05,1755_nse_dnn_0.05_dog_10_n02106030_6831.JPEG
cornet-s,2,476,NaN,truck,dog,0.05,1756_nse_dnn_0.05_dog_10_n02100735_6274.JPEG
cornet-s,2,477,NaN,chair,dog,0.05,1757_nse_dnn_0.05_dog_10_n02091032_10715.JPEG
cornet-s,2,478,NaN,bear,dog,0.05,1758_nse_dnn_0.05_dog_10_n02090622_3563.JPEG
cornet-s,2,479,NaN,dog,dog,0.05,1759_nse_dnn_0.05_dog_10_n02101006_10715.JPEG
cornet-s,2,480,NaN,dog,dog,0.05,1760_nse_dnn_0.05_dog_10_n02093647_1728.JPEG
cornet-s,2,481,NaN,keyboard,knife,0.10,1761_nse_dnn_0.10_knife_10_n03041632_5911.JPEG
cornet-s,2,482,NaN,bottle,knife,0.10,1762_nse_dnn_0.10_knife_10_n03041632_20433.JPEG
cornet-s,2,483,NaN,keyboard,knife,0.10,1763_nse_dnn_0.10_knife_10_n03041632_20504.JPEG
cornet-s,2,484,NaN,chair,knife,0.10,1764_nse_dnn_0.10_knife_10_n03041632_105080.JPEG
cornet-s,2,485,NaN,chair,knife,0.10,1765_nse_dnn_0.10_knife_10_n03041632_25512.JPEG
cornet-s,2,486,NaN,chair,knife,0.10,1766_nse_dnn_0.10_knife_10_n03041632_15754.JPEG
cornet-s,2,487,NaN,chair,knife,0.10,1767_nse_dnn_0.10_knife_10_n03041632_13108.JPEG
cornet-s,2,488,NaN,chair,knife,0.10,1768_nse_dnn_0.10_knife_10_n03041632_50996.JPEG
cornet-s,2,489,NaN,clock,knife,0.10,1769_nse_dnn_0.10_knife_10_n03041632_27960.JPEG
cornet-s,2,490,NaN,boat,knife,0.10,1770_nse_dnn_0.10_knife_10_n03041632_32054.JPEG
cornet-s,2,491,NaN,keyboard,keyboard,0.10,1771_nse_dnn_0.10_keyboard_10_n04505470_4447.JPEG
cornet-s,2,492,NaN,keyboard,keyboard,0.10,1772_nse_dnn_0.10_keyboard_10_n04505470_4710.JPEG
cornet-s,2,493,NaN,knife,keyboard,0.10,1773_nse_dnn_0.10_keyboard_10_n03085013_2190.JPEG
cornet-s,2,494,NaN,elephant,keyboard,0.10,1774_nse_dnn_0.10_keyboard_10_n04505470_4527.JPEG
cornet-s,2,495,NaN,boat,keyboard,0.10,1775_nse_dnn_0.10_keyboard_10_n03085013_20691.JPEG
cornet-s,2,496,NaN,chair,keyboard,0.10,1776_nse_dnn_0.10_keyboard_10_n03085013_24124.JPEG
cornet-s,2,497,NaN,keyboard,keyboard,0.10,1777_nse_dnn_0.10_keyboard_10_n03085013_28083.JPEG
cornet-s,2,498,NaN,boat,keyboard,0.10,1778_nse_dnn_0.10_keyboard_10_n04505470_8937.JPEG
cornet-s,2,499,NaN,keyboard,keyboard,0.10,1779_nse_dnn_0.10_keyboard_10_n04505470_4289.JPEG
cornet-s,2,500,NaN,chair,keyboard,0.10,1780_nse_dnn_0.10_keyboard_10_n04505470_158.JPEG
cornet-s,2,501,NaN,elephant,elephant,0.10,1781_nse_dnn_0.10_elephant_10_n02504458_5277.JPEG
cornet-s,2,502,NaN,elephant,elephant,0.10,1782_nse_dnn_0.10_elephant_10_n02504013_9342.JPEG
cornet-s,2,503,NaN,elephant,elephant,0.10,1783_nse_dnn_0.10_elephant_10_n02504013_5829.JPEG
cornet-s,2,504,NaN,chair,elephant,0.10,1784_nse_dnn_0.10_elephant_10_n02504013_7070.JPEG
cornet-s,2,505,NaN,chair,elephant,0.10,1785_nse_dnn_0.10_elephant_10_n02504013_6130.JPEG
cornet-s,2,506,NaN,cat,elephant,0.10,1786_nse_dnn_0.10_elephant_10_n02504013_9153.JPEG
cornet-s,2,507,NaN,chair,elephant,0.10,1787_nse_dnn_0.10_elephant_10_n02504013_6033.JPEG
cornet-s,2,508,NaN,cat,elephant,0.10,1788_nse_dnn_0.10_elephant_10_n02504458_2957.JPEG
cornet-s,2,509,NaN,chair,elephant,0.10,1789_nse_dnn_0.10_elephant_10_n02504458_13409.JPEG
cornet-s,2,510,NaN,elephant,elephant,0.10,1790_nse_dnn_0.10_elephant_10_n02504458_3324.JPEG
cornet-s,2,511,NaN,chair,bicycle,0.10,1791_nse_dnn_0.10_bicycle_10_n03792782_2182.JPEG
cornet-s,2,512,NaN,clock,bicycle,0.10,1792_nse_dnn_0.10_bicycle_10_n02835271_3619.JPEG
cornet-s,2,513,NaN,bicycle,bicycle,0.10,1793_nse_dnn_0.10_bicycle_10_n02835271_1573.JPEG
cornet-s,2,514,NaN,chair,bicycle,0.10,1794_nse_dnn_0.10_bicycle_10_n02835271_794.JPEG
cornet-s,2,515,NaN,clock,bicycle,0.10,1795_nse_dnn_0.10_bicycle_10_n03792782_17502.JPEG
cornet-s,2,516,NaN,knife,bicycle,0.10,1796_nse_dnn_0.10_bicycle_10_n03792782_47694.JPEG
cornet-s,2,517,NaN,clock,bicycle,0.10,1797_nse_dnn_0.10_bicycle_10_n03792782_19083.JPEG
cornet-s,2,518,NaN,bicycle,bicycle,0.10,1798_nse_dnn_0.10_bicycle_10_n02835271_7096.JPEG
cornet-s,2,519,NaN,bicycle,bicycle,0.10,1799_nse_dnn_0.10_bicycle_10_n02835271_4374.JPEG
cornet-s,2,520,NaN,boat,bicycle,0.10,1800_nse_dnn_0.10_bicycle_10_n03792782_5980.JPEG
cornet-s,2,521,NaN,clock,airplane,0.10,1801_nse_dnn_0.10_airplane_10_n02690373_1512.JPEG
cornet-s,2,522,NaN,chair,airplane,0.10,1802_nse_dnn_0.10_airplane_10_n02690373_7487.JPEG
cornet-s,2,523,NaN,boat,airplane,0.10,1803_nse_dnn_0.10_airplane_10_n02690373_3059.JPEG
cornet-s,2,524,NaN,boat,airplane,0.10,1804_nse_dnn_0.10_airplane_10_n02690373_2389.JPEG
cornet-s,2,525,NaN,clock,airplane,0.10,1805_nse_dnn_0.10_airplane_10_n02690373_8858.JPEG
cornet-s,2,526,NaN,boat,airplane,0.10,1806_nse_dnn_0.10_airplane_10_n02690373_4201.JPEG
cornet-s,2,527,NaN,boat,airplane,0.10,1807_nse_dnn_0.10_airplane_10_n02690373_6978.JPEG
cornet-s,2,528,NaN,airplane,airplane,0.10,1808_nse_dnn_0.10_airplane_10_n02690373_6999.JPEG
cornet-s,2,529,NaN,airplane,airplane,0.10,1809_nse_dnn_0.10_airplane_10_n02690373_4763.JPEG
cornet-s,2,530,NaN,boat,airplane,0.10,1810_nse_dnn_0.10_airplane_10_n02690373_5465.JPEG
cornet-s,2,531,NaN,clock,clock,0.10,1811_nse_dnn_0.10_clock_10_n02708093_8229.JPEG
cornet-s,2,532,NaN,clock,clock,0.10,1812_nse_dnn_0.10_clock_10_n04548280_8277.JPEG
cornet-s,2,533,NaN,clock,clock,0.10,1813_nse_dnn_0.10_clock_10_n04548280_6290.JPEG
cornet-s,2,534,NaN,chair,clock,0.10,1814_nse_dnn_0.10_clock_10_n04548280_17536.JPEG
cornet-s,2,535,NaN,knife,clock,0.10,1815_nse_dnn_0.10_clock_10_n03196217_6706.JPEG
cornet-s,2,536,NaN,clock,clock,0.10,1816_nse_dnn_0.10_clock_10_n02708093_3591.JPEG
cornet-s,2,537,NaN,clock,clock,0.10,1817_nse_dnn_0.10_clock_10_n02708093_2580.JPEG
cornet-s,2,538,NaN,clock,clock,0.10,1818_nse_dnn_0.10_clock_10_n03196217_4068.JPEG
cornet-s,2,539,NaN,bottle,clock,0.10,1819_nse_dnn_0.10_clock_10_n04548280_6605.JPEG
cornet-s,2,540,NaN,truck,clock,0.10,1820_nse_dnn_0.10_clock_10_n03196217_981.JPEG
cornet-s,2,541,NaN,truck,oven,0.10,1821_nse_dnn_0.10_oven_10_n04111531_2960.JPEG
cornet-s,2,542,NaN,chair,oven,0.10,1822_nse_dnn_0.10_oven_10_n04111531_6094.JPEG
cornet-s,2,543,NaN,oven,oven,0.10,1823_nse_dnn_0.10_oven_10_n04111531_15947.JPEG
cornet-s,2,544,NaN,clock,oven,0.10,1824_nse_dnn_0.10_oven_10_n04111531_6479.JPEG
cornet-s,2,545,NaN,knife,oven,0.10,1825_nse_dnn_0.10_oven_10_n04111531_18520.JPEG
cornet-s,2,546,NaN,knife,oven,0.10,1826_nse_dnn_0.10_oven_10_n04111531_8398.JPEG
cornet-s,2,547,NaN,truck,oven,0.10,1827_nse_dnn_0.10_oven_10_n04111531_4984.JPEG
cornet-s,2,548,NaN,chair,oven,0.10,1828_nse_dnn_0.10_oven_10_n04111531_10974.JPEG
cornet-s,2,549,NaN,knife,oven,0.10,1829_nse_dnn_0.10_oven_10_n04111531_5792.JPEG
cornet-s,2,550,NaN,chair,oven,0.10,1830_nse_dnn_0.10_oven_10_n04111531_5216.JPEG
cornet-s,2,551,NaN,knife,chair,0.10,1831_nse_dnn_0.10_chair_10_n04429376_10546.JPEG
cornet-s,2,552,NaN,clock,chair,0.10,1832_nse_dnn_0.10_chair_10_n04429376_18334.JPEG
cornet-s,2,553,NaN,chair,chair,0.10,1833_nse_dnn_0.10_chair_10_n02791124_2972.JPEG
cornet-s,2,554,NaN,chair,chair,0.10,1834_nse_dnn_0.10_chair_10_n03376595_13544.JPEG
cornet-s,2,555,NaN,chair,chair,0.10,1835_nse_dnn_0.10_chair_10_n03376595_19839.JPEG
cornet-s,2,556,NaN,chair,chair,0.10,1836_nse_dnn_0.10_chair_10_n04429376_6915.JPEG
cornet-s,2,557,NaN,clock,chair,0.10,1837_nse_dnn_0.10_chair_10_n03376595_9482.JPEG
cornet-s,2,558,NaN,chair,chair,0.10,1838_nse_dnn_0.10_chair_10_n04099969_11341.JPEG
cornet-s,2,559,NaN,chair,chair,0.10,1839_nse_dnn_0.10_chair_10_n02791124_11433.JPEG
cornet-s,2,560,NaN,chair,chair,0.10,1840_nse_dnn_0.10_chair_10_n02791124_2935.JPEG
cornet-s,2,561,NaN,chair,bear,0.10,1841_nse_dnn_0.10_bear_10_n02133161_1133.JPEG
cornet-s,2,562,NaN,boat,bear,0.10,1842_nse_dnn_0.10_bear_10_n02133161_11817.JPEG
cornet-s,2,563,NaN,chair,bear,0.10,1843_nse_dnn_0.10_bear_10_n02133161_10337.JPEG
cornet-s,2,564,NaN,bear,bear,0.10,1844_nse_dnn_0.10_bear_10_n02134418_28023.JPEG
cornet-s,2,565,NaN,chair,bear,0.10,1845_nse_dnn_0.10_bear_10_n02134418_2381.JPEG
cornet-s,2,566,NaN,chair,bear,0.10,1846_nse_dnn_0.10_bear_10_n02134084_3697.JPEG
cornet-s,2,567,NaN,boat,bear,0.10,1847_nse_dnn_0.10_bear_10_n02134418_4463.JPEG
cornet-s,2,568,NaN,chair,bear,0.10,1848_nse_dnn_0.10_bear_10_n02133161_3979.JPEG
cornet-s,2,569,NaN,cat,bear,0.10,1849_nse_dnn_0.10_bear_10_n02132136_19696.JPEG
cornet-s,2,570,NaN,bear,bear,0.10,1850_nse_dnn_0.10_bear_10_n02134084_572.JPEG
cornet-s,2,571,NaN,bicycle,boat,0.10,1851_nse_dnn_0.10_boat_10_n04273569_24211.JPEG
cornet-s,2,572,NaN,airplane,boat,0.10,1852_nse_dnn_0.10_boat_10_n03662601_2816.JPEG
cornet-s,2,573,NaN,chair,boat,0.10,1853_nse_dnn_0.10_boat_10_n04612504_9952.JPEG
cornet-s,2,574,NaN,boat,boat,0.10,1854_nse_dnn_0.10_boat_10_n02951358_33807.JPEG
cornet-s,2,575,NaN,boat,boat,0.10,1855_nse_dnn_0.10_boat_10_n04273569_17179.JPEG
cornet-s,2,576,NaN,boat,boat,0.10,1856_nse_dnn_0.10_boat_10_n03344393_3298.JPEG
cornet-s,2,577,NaN,boat,boat,0.10,1857_nse_dnn_0.10_boat_10_n03344393_8122.JPEG
cornet-s,2,578,NaN,boat,boat,0.10,1858_nse_dnn_0.10_boat_10_n03344393_3661.JPEG
cornet-s,2,579,NaN,boat,boat,0.10,1859_nse_dnn_0.10_boat_10_n04612504_254.JPEG
cornet-s,2,580,NaN,boat,boat,0.10,1860_nse_dnn_0.10_boat_10_n04273569_30568.JPEG
cornet-s,2,581,NaN,cat,cat,0.10,1861_nse_dnn_0.10_cat_10_n02123045_5009.JPEG
cornet-s,2,582,NaN,chair,cat,0.10,1862_nse_dnn_0.10_cat_10_n02123045_1055.JPEG
cornet-s,2,583,NaN,elephant,cat,0.10,1863_nse_dnn_0.10_cat_10_n02125311_7492.JPEG
cornet-s,2,584,NaN,bottle,cat,0.10,1864_nse_dnn_0.10_cat_10_n02123597_5836.JPEG
cornet-s,2,585,NaN,clock,cat,0.10,1865_nse_dnn_0.10_cat_10_n02123597_2038.JPEG
cornet-s,2,586,NaN,bear,cat,0.10,1866_nse_dnn_0.10_cat_10_n02123597_7615.JPEG
cornet-s,2,587,NaN,chair,cat,0.10,1867_nse_dnn_0.10_cat_10_n02123394_900.JPEG
cornet-s,2,588,NaN,chair,cat,0.10,1868_nse_dnn_0.10_cat_10_n02124075_7693.JPEG
cornet-s,2,589,NaN,elephant,cat,0.10,1869_nse_dnn_0.10_cat_10_n02123597_7006.JPEG
cornet-s,2,590,NaN,cat,cat,0.10,1870_nse_dnn_0.10_cat_10_n02123045_3729.JPEG
cornet-s,2,591,NaN,clock,bottle,0.10,1871_nse_dnn_0.10_bottle_10_n04591713_6291.JPEG
cornet-s,2,592,NaN,clock,bottle,0.10,1872_nse_dnn_0.10_bottle_10_n04557648_9713.JPEG
cornet-s,2,593,NaN,clock,bottle,0.10,1873_nse_dnn_0.10_bottle_10_n02823428_5976.JPEG
cornet-s,2,594,NaN,clock,bottle,0.10,1874_nse_dnn_0.10_bottle_10_n04557648_591.JPEG
cornet-s,2,595,NaN,bottle,bottle,0.10,1875_nse_dnn_0.10_bottle_10_n04579145_505.JPEG
cornet-s,2,596,NaN,clock,bottle,0.10,1876_nse_dnn_0.10_bottle_10_n03983396_2034.JPEG
cornet-s,2,597,NaN,chair,bottle,0.10,1877_nse_dnn_0.10_bottle_10_n04557648_4932.JPEG
cornet-s,2,598,NaN,clock,bottle,0.10,1878_nse_dnn_0.10_bottle_10_n04560804_15752.JPEG
cornet-s,2,599,NaN,bottle,bottle,0.10,1879_nse_dnn_0.10_bottle_10_n04591713_6473.JPEG
cornet-s,2,600,NaN,keyboard,bottle,0.10,1880_nse_dnn_0.10_bottle_10_n03937543_3147.JPEG
cornet-s,2,601,NaN,truck,truck,0.10,1881_nse_dnn_0.10_truck_10_n03796401_9455.JPEG
cornet-s,2,602,NaN,boat,truck,0.10,1882_nse_dnn_0.10_truck_10_n04467665_50912.JPEG
cornet-s,2,603,NaN,chair,truck,0.10,1883_nse_dnn_0.10_truck_10_n03417042_2103.JPEG
cornet-s,2,604,NaN,truck,truck,0.10,1884_nse_dnn_0.10_truck_10_n03417042_23038.JPEG
cornet-s,2,605,NaN,boat,truck,0.10,1885_nse_dnn_0.10_truck_10_n04467665_51519.JPEG
cornet-s,2,606,NaN,chair,truck,0.10,1886_nse_dnn_0.10_truck_10_n03417042_212.JPEG
cornet-s,2,607,NaN,chair,truck,0.10,1887_nse_dnn_0.10_truck_10_n03796401_7380.JPEG
cornet-s,2,608,NaN,clock,truck,0.10,1888_nse_dnn_0.10_truck_10_n03796401_22323.JPEG
cornet-s,2,609,NaN,boat,truck,0.10,1889_nse_dnn_0.10_truck_10_n04467665_47685.JPEG
cornet-s,2,610,NaN,truck,truck,0.10,1890_nse_dnn_0.10_truck_10_n03417042_3586.JPEG
cornet-s,2,611,NaN,bottle,car,0.10,1891_nse_dnn_0.10_car_10_n04285008_8951.JPEG
cornet-s,2,612,NaN,boat,car,0.10,1892_nse_dnn_0.10_car_10_n04285008_402.JPEG
cornet-s,2,613,NaN,clock,car,0.10,1893_nse_dnn_0.10_car_10_n03100240_5798.JPEG
cornet-s,2,614,NaN,car,car,0.10,1894_nse_dnn_0.10_car_10_n04285008_17151.JPEG
cornet-s,2,615,NaN,bicycle,car,0.10,1895_nse_dnn_0.10_car_10_n02814533_38719.JPEG
cornet-s,2,616,NaN,clock,car,0.10,1896_nse_dnn_0.10_car_10_n03100240_2277.JPEG
cornet-s,2,617,NaN,truck,car,0.10,1897_nse_dnn_0.10_car_10_n04285008_5955.JPEG
cornet-s,2,618,NaN,chair,car,0.10,1898_nse_dnn_0.10_car_10_n02814533_69316.JPEG
cornet-s,2,619,NaN,bottle,car,0.10,1899_nse_dnn_0.10_car_10_n02814533_61871.JPEG
cornet-s,2,620,NaN,knife,car,0.10,1900_nse_dnn_0.10_car_10_n03100240_9598.JPEG
cornet-s,2,621,NaN,cat,bird,0.10,1901_nse_dnn_0.10_bird_10_n02028035_4879.JPEG
cornet-s,2,622,NaN,cat,bird,0.10,1902_nse_dnn_0.10_bird_10_n02011460_3905.JPEG
cornet-s,2,623,NaN,chair,bird,0.10,1903_nse_dnn_0.10_bird_10_n01797886_6856.JPEG
cornet-s,2,624,NaN,dog,bird,0.10,1904_nse_dnn_0.10_bird_10_n01824575_1401.JPEG
cornet-s,2,625,NaN,bear,bird,0.10,1905_nse_dnn_0.10_bird_10_n02009912_7406.JPEG
cornet-s,2,626,NaN,cat,bird,0.10,1906_nse_dnn_0.10_bird_10_n02002556_3129.JPEG
cornet-s,2,627,NaN,clock,bird,0.10,1907_nse_dnn_0.10_bird_10_n02018795_14544.JPEG
cornet-s,2,628,NaN,bear,bird,0.10,1908_nse_dnn_0.10_bird_10_n02056570_3192.JPEG
cornet-s,2,629,NaN,bear,bird,0.10,1909_nse_dnn_0.10_bird_10_n01855032_1136.JPEG
cornet-s,2,630,NaN,elephant,bird,0.10,1910_nse_dnn_0.10_bird_10_n01582220_4708.JPEG
cornet-s,2,631,NaN,elephant,dog,0.10,1911_nse_dnn_0.10_dog_10_n02109047_8114.JPEG
cornet-s,2,632,NaN,bear,dog,0.10,1912_nse_dnn_0.10_dog_10_n02106550_2824.JPEG
cornet-s,2,633,NaN,cat,dog,0.10,1913_nse_dnn_0.10_dog_10_n02100236_8661.JPEG
cornet-s,2,634,NaN,clock,dog,0.10,1914_nse_dnn_0.10_dog_10_n02099429_3215.JPEG
cornet-s,2,635,NaN,bear,dog,0.10,1915_nse_dnn_0.10_dog_10_n02086646_422.JPEG
cornet-s,2,636,NaN,boat,dog,0.10,1916_nse_dnn_0.10_dog_10_n02093859_46.JPEG
cornet-s,2,637,NaN,elephant,dog,0.10,1917_nse_dnn_0.10_dog_10_n02102177_2616.JPEG
cornet-s,2,638,NaN,dog,dog,0.10,1918_nse_dnn_0.10_dog_10_n02088238_3151.JPEG
cornet-s,2,639,NaN,cat,dog,0.10,1919_nse_dnn_0.10_dog_10_n02106030_16666.JPEG
cornet-s,2,640,NaN,cat,dog,0.10,1920_nse_dnn_0.10_dog_10_n02113978_4719.JPEG
cornet-s,2,641,NaN,bear,knife,0.20,1921_nse_dnn_0.20_knife_10_n03041632_42526.JPEG
cornet-s,2,642,NaN,clock,knife,0.20,1922_nse_dnn_0.20_knife_10_n03041632_16172.JPEG
cornet-s,2,643,NaN,knife,knife,0.20,1923_nse_dnn_0.20_knife_10_n03041632_86338.JPEG
cornet-s,2,644,NaN,clock,knife,0.20,1924_nse_dnn_0.20_knife_10_n03041632_21560.JPEG
cornet-s,2,645,NaN,clock,knife,0.20,1925_nse_dnn_0.20_knife_10_n03041632_102887.JPEG
cornet-s,2,646,NaN,keyboard,knife,0.20,1926_nse_dnn_0.20_knife_10_n03041632_77022.JPEG
cornet-s,2,647,NaN,chair,knife,0.20,1927_nse_dnn_0.20_knife_10_n03041632_25772.JPEG
cornet-s,2,648,NaN,knife,knife,0.20,1928_nse_dnn_0.20_knife_10_n03041632_4708.JPEG
cornet-s,2,649,NaN,bottle,knife,0.20,1929_nse_dnn_0.20_knife_10_n03041632_52371.JPEG
cornet-s,2,650,NaN,chair,knife,0.20,1930_nse_dnn_0.20_knife_10_n03041632_90407.JPEG
cornet-s,2,651,NaN,knife,keyboard,0.20,1931_nse_dnn_0.20_keyboard_10_n04505470_2358.JPEG
cornet-s,2,652,NaN,chair,keyboard,0.20,1932_nse_dnn_0.20_keyboard_10_n03085013_18779.JPEG
cornet-s,2,653,NaN,chair,keyboard,0.20,1933_nse_dnn_0.20_keyboard_10_n03085013_22821.JPEG
cornet-s,2,654,NaN,chair,keyboard,0.20,1934_nse_dnn_0.20_keyboard_10_n03085013_2139.JPEG
cornet-s,2,655,NaN,clock,keyboard,0.20,1935_nse_dnn_0.20_keyboard_10_n03085013_23552.JPEG
cornet-s,2,656,NaN,chair,keyboard,0.20,1936_nse_dnn_0.20_keyboard_10_n03085013_3795.JPEG
cornet-s,2,657,NaN,elephant,keyboard,0.20,1937_nse_dnn_0.20_keyboard_10_n04505470_1416.JPEG
cornet-s,2,658,NaN,knife,keyboard,0.20,1938_nse_dnn_0.20_keyboard_10_n04505470_2569.JPEG
cornet-s,2,659,NaN,clock,keyboard,0.20,1939_nse_dnn_0.20_keyboard_10_n03085013_24467.JPEG
cornet-s,2,660,NaN,knife,keyboard,0.20,1940_nse_dnn_0.20_keyboard_10_n04505470_10775.JPEG
cornet-s,2,661,NaN,chair,elephant,0.20,1941_nse_dnn_0.20_elephant_10_n02504013_3084.JPEG
cornet-s,2,662,NaN,boat,elephant,0.20,1942_nse_dnn_0.20_elephant_10_n02504013_6181.JPEG
cornet-s,2,663,NaN,cat,elephant,0.20,1943_nse_dnn_0.20_elephant_10_n02504013_10463.JPEG
cornet-s,2,664,NaN,chair,elephant,0.20,1944_nse_dnn_0.20_elephant_10_n02504458_2585.JPEG
cornet-s,2,665,NaN,chair,elephant,0.20,1945_nse_dnn_0.20_elephant_10_n02504458_2419.JPEG
cornet-s,2,666,NaN,boat,elephant,0.20,1946_nse_dnn_0.20_elephant_10_n02504458_396.JPEG
cornet-s,2,667,NaN,cat,elephant,0.20,1947_nse_dnn_0.20_elephant_10_n02504013_4278.JPEG
cornet-s,2,668,NaN,clock,elephant,0.20,1948_nse_dnn_0.20_elephant_10_n02504013_2988.JPEG
cornet-s,2,669,NaN,chair,elephant,0.20,1949_nse_dnn_0.20_elephant_10_n02504458_5243.JPEG
cornet-s,2,670,NaN,bear,elephant,0.20,1950_nse_dnn_0.20_elephant_10_n02504013_3939.JPEG
cornet-s,2,671,NaN,chair,bicycle,0.20,1951_nse_dnn_0.20_bicycle_10_n02835271_6074.JPEG
cornet-s,2,672,NaN,bottle,bicycle,0.20,1952_nse_dnn_0.20_bicycle_10_n03792782_3069.JPEG
cornet-s,2,673,NaN,bear,bicycle,0.20,1953_nse_dnn_0.20_bicycle_10_n03792782_176.JPEG
cornet-s,2,674,NaN,chair,bicycle,0.20,1954_nse_dnn_0.20_bicycle_10_n02835271_4191.JPEG
cornet-s,2,675,NaN,chair,bicycle,0.20,1955_nse_dnn_0.20_bicycle_10_n02835271_2030.JPEG
cornet-s,2,676,NaN,clock,bicycle,0.20,1956_nse_dnn_0.20_bicycle_10_n03792782_907.JPEG
cornet-s,2,677,NaN,cat,bicycle,0.20,1957_nse_dnn_0.20_bicycle_10_n03792782_1760.JPEG
cornet-s,2,678,NaN,cat,bicycle,0.20,1958_nse_dnn_0.20_bicycle_10_n03792782_5089.JPEG
cornet-s,2,679,NaN,clock,bicycle,0.20,1959_nse_dnn_0.20_bicycle_10_n03792782_8840.JPEG
cornet-s,2,680,NaN,clock,bicycle,0.20,1960_nse_dnn_0.20_bicycle_10_n03792782_61058.JPEG
cornet-s,2,681,NaN,chair,airplane,0.20,1961_nse_dnn_0.20_airplane_10_n02690373_7685.JPEG
cornet-s,2,682,NaN,boat,airplane,0.20,1962_nse_dnn_0.20_airplane_10_n02690373_9346.JPEG
cornet-s,2,683,NaN,boat,airplane,0.20,1963_nse_dnn_0.20_airplane_10_n02690373_2496.JPEG
cornet-s,2,684,NaN,chair,airplane,0.20,1964_nse_dnn_0.20_airplane_10_n02690373_790.JPEG
cornet-s,2,685,NaN,chair,airplane,0.20,1965_nse_dnn_0.20_airplane_10_n02690373_19673.JPEG
cornet-s,2,686,NaN,clock,airplane,0.20,1966_nse_dnn_0.20_airplane_10_n02690373_8783.JPEG
cornet-s,2,687,NaN,chair,airplane,0.20,1967_nse_dnn_0.20_airplane_10_n02690373_9849.JPEG
cornet-s,2,688,NaN,boat,airplane,0.20,1968_nse_dnn_0.20_airplane_10_n02690373_12813.JPEG
cornet-s,2,689,NaN,chair,airplane,0.20,1969_nse_dnn_0.20_airplane_10_n02690373_10131.JPEG
cornet-s,2,690,NaN,chair,airplane,0.20,1970_nse_dnn_0.20_airplane_10_n02690373_7055.JPEG
cornet-s,2,691,NaN,clock,clock,0.20,1971_nse_dnn_0.20_clock_10_n04548280_596.JPEG
cornet-s,2,692,NaN,clock,clock,0.20,1972_nse_dnn_0.20_clock_10_n03196217_4004.JPEG
cornet-s,2,693,NaN,knife,clock,0.20,1973_nse_dnn_0.20_clock_10_n03196217_7026.JPEG
cornet-s,2,694,NaN,clock,clock,0.20,1974_nse_dnn_0.20_clock_10_n04548280_5268.JPEG
cornet-s,2,695,NaN,clock,clock,0.20,1975_nse_dnn_0.20_clock_10_n04548280_4397.JPEG
cornet-s,2,696,NaN,chair,clock,0.20,1976_nse_dnn_0.20_clock_10_n04548280_5459.JPEG
cornet-s,2,697,NaN,clock,clock,0.20,1977_nse_dnn_0.20_clock_10_n04548280_12615.JPEG
cornet-s,2,698,NaN,chair,clock,0.20,1978_nse_dnn_0.20_clock_10_n03196217_4434.JPEG
cornet-s,2,699,NaN,boat,clock,0.20,1979_nse_dnn_0.20_clock_10_n02708093_214.JPEG
cornet-s,2,700,NaN,clock,clock,0.20,1980_nse_dnn_0.20_clock_10_n04548280_8412.JPEG
cornet-s,2,701,NaN,bear,oven,0.20,1981_nse_dnn_0.20_oven_10_n04111531_19075.JPEG
cornet-s,2,702,NaN,clock,oven,0.20,1982_nse_dnn_0.20_oven_10_n04111531_22263.JPEG
cornet-s,2,703,NaN,bear,oven,0.20,1983_nse_dnn_0.20_oven_10_n04111531_5015.JPEG
cornet-s,2,704,NaN,clock,oven,0.20,1984_nse_dnn_0.20_oven_10_n04111531_1970.JPEG
cornet-s,2,705,NaN,elephant,oven,0.20,1985_nse_dnn_0.20_oven_10_n04111531_10769.JPEG
cornet-s,2,706,NaN,clock,oven,0.20,1986_nse_dnn_0.20_oven_10_n04111531_627.JPEG
cornet-s,2,707,NaN,chair,oven,0.20,1987_nse_dnn_0.20_oven_10_n04111531_283.JPEG
cornet-s,2,708,NaN,cat,oven,0.20,1988_nse_dnn_0.20_oven_10_n04111531_21309.JPEG
cornet-s,2,709,NaN,chair,oven,0.20,1989_nse_dnn_0.20_oven_10_n04111531_11287.JPEG
cornet-s,2,710,NaN,chair,oven,0.20,1990_nse_dnn_0.20_oven_10_n04111531_9455.JPEG
cornet-s,2,711,NaN,clock,chair,0.20,1991_nse_dnn_0.20_chair_10_n04099969_3430.JPEG
cornet-s,2,712,NaN,clock,chair,0.20,1992_nse_dnn_0.20_chair_10_n04099969_60.JPEG
cornet-s,2,713,NaN,chair,chair,0.20,1993_nse_dnn_0.20_chair_10_n03376595_1802.JPEG
cornet-s,2,714,NaN,clock,chair,0.20,1994_nse_dnn_0.20_chair_10_n03376595_4354.JPEG
cornet-s,2,715,NaN,bottle,chair,0.20,1995_nse_dnn_0.20_chair_10_n03376595_302.JPEG
cornet-s,2,716,NaN,chair,chair,0.20,1996_nse_dnn_0.20_chair_10_n04429376_7593.JPEG
cornet-s,2,717,NaN,clock,chair,0.20,1997_nse_dnn_0.20_chair_10_n04429376_22381.JPEG
cornet-s,2,718,NaN,chair,chair,0.20,1998_nse_dnn_0.20_chair_10_n04429376_37106.JPEG
cornet-s,2,719,NaN,clock,chair,0.20,1999_nse_dnn_0.20_chair_10_n02791124_1358.JPEG
cornet-s,2,720,NaN,cat,chair,0.20,2000_nse_dnn_0.20_chair_10_n03376595_385.JPEG
cornet-s,2,721,NaN,clock,bear,0.20,2001_nse_dnn_0.20_bear_10_n02132136_7206.JPEG
cornet-s,2,722,NaN,cat,bear,0.20,2002_nse_dnn_0.20_bear_10_n02132136_9735.JPEG
cornet-s,2,723,NaN,bear,bear,0.20,2003_nse_dnn_0.20_bear_10_n02133161_583.JPEG
cornet-s,2,724,NaN,bear,bear,0.20,2004_nse_dnn_0.20_bear_10_n02132136_10318.JPEG
cornet-s,2,725,NaN,chair,bear,0.20,2005_nse_dnn_0.20_bear_10_n02132136_7147.JPEG
cornet-s,2,726,NaN,bear,bear,0.20,2006_nse_dnn_0.20_bear_10_n02134418_3232.JPEG
cornet-s,2,727,NaN,bear,bear,0.20,2007_nse_dnn_0.20_bear_10_n02134418_1809.JPEG
cornet-s,2,728,NaN,clock,bear,0.20,2008_nse_dnn_0.20_bear_10_n02134418_92.JPEG
cornet-s,2,729,NaN,cat,bear,0.20,2009_nse_dnn_0.20_bear_10_n02134418_102.JPEG
cornet-s,2,730,NaN,clock,bear,0.20,2010_nse_dnn_0.20_bear_10_n02133161_3340.JPEG
cornet-s,2,731,NaN,chair,boat,0.20,2011_nse_dnn_0.20_boat_10_n03344393_4997.JPEG
cornet-s,2,732,NaN,boat,boat,0.20,2012_nse_dnn_0.20_boat_10_n03662601_17237.JPEG
cornet-s,2,733,NaN,clock,boat,0.20,2013_nse_dnn_0.20_boat_10_n04612504_4979.JPEG
cornet-s,2,734,NaN,chair,boat,0.20,2014_nse_dnn_0.20_boat_10_n03344393_11006.JPEG
cornet-s,2,735,NaN,clock,boat,0.20,2015_nse_dnn_0.20_boat_10_n03344393_8672.JPEG
cornet-s,2,736,NaN,chair,boat,0.20,2016_nse_dnn_0.20_boat_10_n04273569_2667.JPEG
cornet-s,2,737,NaN,chair,boat,0.20,2017_nse_dnn_0.20_boat_10_n03344393_2924.JPEG
cornet-s,2,738,NaN,chair,boat,0.20,2018_nse_dnn_0.20_boat_10_n02951358_33286.JPEG
cornet-s,2,739,NaN,chair,boat,0.20,2019_nse_dnn_0.20_boat_10_n03344393_4900.JPEG
cornet-s,2,740,NaN,boat,boat,0.20,2020_nse_dnn_0.20_boat_10_n02951358_30382.JPEG
cornet-s,2,741,NaN,bottle,cat,0.20,2021_nse_dnn_0.20_cat_10_n02123597_4302.JPEG
cornet-s,2,742,NaN,clock,cat,0.20,2022_nse_dnn_0.20_cat_10_n02123394_201.JPEG
cornet-s,2,743,NaN,clock,cat,0.20,2023_nse_dnn_0.20_cat_10_n02123597_22229.JPEG
cornet-s,2,744,NaN,knife,cat,0.20,2024_nse_dnn_0.20_cat_10_n02123045_734.JPEG
cornet-s,2,745,NaN,cat,cat,0.20,2025_nse_dnn_0.20_cat_10_n02123159_7803.JPEG
cornet-s,2,746,NaN,chair,cat,0.20,2026_nse_dnn_0.20_cat_10_n02123394_1831.JPEG
cornet-s,2,747,NaN,cat,cat,0.20,2027_nse_dnn_0.20_cat_10_n02123597_11293.JPEG
cornet-s,2,748,NaN,bear,cat,0.20,2028_nse_dnn_0.20_cat_10_n02125311_24439.JPEG
cornet-s,2,749,NaN,bottle,cat,0.20,2029_nse_dnn_0.20_cat_10_n02123597_9200.JPEG
cornet-s,2,750,NaN,clock,cat,0.20,2030_nse_dnn_0.20_cat_10_n02123045_3477.JPEG
cornet-s,2,751,NaN,chair,bottle,0.20,2031_nse_dnn_0.20_bottle_10_n04591713_4991.JPEG
cornet-s,2,752,NaN,clock,bottle,0.20,2032_nse_dnn_0.20_bottle_10_n04591713_7090.JPEG
cornet-s,2,753,NaN,bear,bottle,0.20,2033_nse_dnn_0.20_bottle_10_n04560804_13142.JPEG
cornet-s,2,754,NaN,bear,bottle,0.20,2034_nse_dnn_0.20_bottle_10_n04560804_22673.JPEG
cornet-s,2,755,NaN,bear,bottle,0.20,2035_nse_dnn_0.20_bottle_10_n02823428_1186.JPEG
cornet-s,2,756,NaN,clock,bottle,0.20,2036_nse_dnn_0.20_bottle_10_n02823428_5819.JPEG
cornet-s,2,757,NaN,clock,bottle,0.20,2037_nse_dnn_0.20_bottle_10_n03937543_7992.JPEG
cornet-s,2,758,NaN,clock,bottle,0.20,2038_nse_dnn_0.20_bottle_10_n03937543_10869.JPEG
cornet-s,2,759,NaN,boat,bottle,0.20,2039_nse_dnn_0.20_bottle_10_n04560804_12978.JPEG
cornet-s,2,760,NaN,boat,bottle,0.20,2040_nse_dnn_0.20_bottle_10_n04560804_5886.JPEG
cornet-s,2,761,NaN,chair,truck,0.20,2041_nse_dnn_0.20_truck_10_n03417042_14645.JPEG
cornet-s,2,762,NaN,chair,truck,0.20,2042_nse_dnn_0.20_truck_10_n03796401_1618.JPEG
cornet-s,2,763,NaN,boat,truck,0.20,2043_nse_dnn_0.20_truck_10_n04467665_52418.JPEG
cornet-s,2,764,NaN,chair,truck,0.20,2044_nse_dnn_0.20_truck_10_n03417042_28707.JPEG
cornet-s,2,765,NaN,boat,truck,0.20,2045_nse_dnn_0.20_truck_10_n04467665_77214.JPEG
cornet-s,2,766,NaN,chair,truck,0.20,2046_nse_dnn_0.20_truck_10_n04467665_23731.JPEG
cornet-s,2,767,NaN,bear,truck,0.20,2047_nse_dnn_0.20_truck_10_n03417042_23802.JPEG
cornet-s,2,768,NaN,chair,truck,0.20,2048_nse_dnn_0.20_truck_10_n03417042_4292.JPEG
cornet-s,2,769,NaN,chair,truck,0.20,2049_nse_dnn_0.20_truck_10_n03417042_7869.JPEG
cornet-s,2,770,NaN,chair,truck,0.20,2050_nse_dnn_0.20_truck_10_n03417042_18603.JPEG
cornet-s,2,771,NaN,cat,car,0.20,2051_nse_dnn_0.20_car_10_n02814533_81275.JPEG
cornet-s,2,772,NaN,clock,car,0.20,2052_nse_dnn_0.20_car_10_n02814533_37110.JPEG
cornet-s,2,773,NaN,chair,car,0.20,2053_nse_dnn_0.20_car_10_n04285008_11186.JPEG
cornet-s,2,774,NaN,bear,car,0.20,2054_nse_dnn_0.20_car_10_n03100240_17966.JPEG
cornet-s,2,775,NaN,bottle,car,0.20,2055_nse_dnn_0.20_car_10_n04285008_8052.JPEG
cornet-s,2,776,NaN,chair,car,0.20,2056_nse_dnn_0.20_car_10_n02814533_90486.JPEG
cornet-s,2,777,NaN,boat,car,0.20,2057_nse_dnn_0.20_car_10_n04285008_3056.JPEG
cornet-s,2,778,NaN,chair,car,0.20,2058_nse_dnn_0.20_car_10_n02814533_31860.JPEG
cornet-s,2,779,NaN,chair,car,0.20,2059_nse_dnn_0.20_car_10_n03100240_5985.JPEG
cornet-s,2,780,NaN,clock,car,0.20,2060_nse_dnn_0.20_car_10_n04285008_3559.JPEG
cornet-s,2,781,NaN,elephant,bird,0.20,2061_nse_dnn_0.20_bird_10_n02013706_4281.JPEG
cornet-s,2,782,NaN,knife,bird,0.20,2062_nse_dnn_0.20_bird_10_n01828970_10231.JPEG
cornet-s,2,783,NaN,knife,bird,0.20,2063_nse_dnn_0.20_bird_10_n02013706_7397.JPEG
cornet-s,2,784,NaN,chair,bird,0.20,2064_nse_dnn_0.20_bird_10_n01855672_55807.JPEG
cornet-s,2,785,NaN,clock,bird,0.20,2065_nse_dnn_0.20_bird_10_n02011460_16344.JPEG
cornet-s,2,786,NaN,chair,bird,0.20,2066_nse_dnn_0.20_bird_10_n01514859_20833.JPEG
cornet-s,2,787,NaN,chair,bird,0.20,2067_nse_dnn_0.20_bird_10_n02018795_3842.JPEG
cornet-s,2,788,NaN,cat,bird,0.20,2068_nse_dnn_0.20_bird_10_n02002724_5289.JPEG
cornet-s,2,789,NaN,bear,bird,0.20,2069_nse_dnn_0.20_bird_10_n02056570_6797.JPEG
cornet-s,2,790,NaN,clock,bird,0.20,2070_nse_dnn_0.20_bird_10_n01534433_5658.JPEG
cornet-s,2,791,NaN,cat,dog,0.20,2071_nse_dnn_0.20_dog_10_n02097209_1.JPEG
cornet-s,2,792,NaN,chair,dog,0.20,2072_nse_dnn_0.20_dog_10_n02090721_483.JPEG
cornet-s,2,793,NaN,cat,dog,0.20,2073_nse_dnn_0.20_dog_10_n02093647_5494.JPEG
cornet-s,2,794,NaN,chair,dog,0.20,2074_nse_dnn_0.20_dog_10_n02091134_744.JPEG
cornet-s,2,795,NaN,clock,dog,0.20,2075_nse_dnn_0.20_dog_10_n02093859_3574.JPEG
cornet-s,2,796,NaN,cat,dog,0.20,2076_nse_dnn_0.20_dog_10_n02107312_5477.JPEG
cornet-s,2,797,NaN,cat,dog,0.20,2077_nse_dnn_0.20_dog_10_n02110806_5677.JPEG
cornet-s,2,798,NaN,cat,dog,0.20,2078_nse_dnn_0.20_dog_10_n02088632_5187.JPEG
cornet-s,2,799,NaN,boat,dog,0.20,2079_nse_dnn_0.20_dog_10_n02088238_3286.JPEG
cornet-s,2,800,NaN,cat,dog,0.20,2080_nse_dnn_0.20_dog_10_n02092002_919.JPEG
cornet-s,2,801,NaN,clock,knife,0.35,2081_nse_dnn_0.35_knife_10_n03041632_32197.JPEG
cornet-s,2,802,NaN,bottle,knife,0.35,2082_nse_dnn_0.35_knife_10_n03041632_36277.JPEG
cornet-s,2,803,NaN,clock,knife,0.35,2083_nse_dnn_0.35_knife_10_n03041632_20194.JPEG
cornet-s,2,804,NaN,clock,knife,0.35,2084_nse_dnn_0.35_knife_10_n03041632_44133.JPEG
cornet-s,2,805,NaN,clock,knife,0.35,2085_nse_dnn_0.35_knife_10_n03041632_11285.JPEG
cornet-s,2,806,NaN,bottle,knife,0.35,2086_nse_dnn_0.35_knife_10_n03041632_84048.JPEG
cornet-s,2,807,NaN,clock,knife,0.35,2087_nse_dnn_0.35_knife_10_n03041632_32337.JPEG
cornet-s,2,808,NaN,clock,knife,0.35,2088_nse_dnn_0.35_knife_10_n03041632_8051.JPEG
cornet-s,2,809,NaN,bottle,knife,0.35,2089_nse_dnn_0.35_knife_10_n03041632_33584.JPEG
cornet-s,2,810,NaN,bottle,knife,0.35,2090_nse_dnn_0.35_knife_10_n03041632_42156.JPEG
cornet-s,2,811,NaN,clock,keyboard,0.35,2091_nse_dnn_0.35_keyboard_10_n03085013_19401.JPEG
cornet-s,2,812,NaN,bottle,keyboard,0.35,2092_nse_dnn_0.35_keyboard_10_n03085013_2090.JPEG
cornet-s,2,813,NaN,clock,keyboard,0.35,2093_nse_dnn_0.35_keyboard_10_n04505470_1430.JPEG
cornet-s,2,814,NaN,bottle,keyboard,0.35,2094_nse_dnn_0.35_keyboard_10_n04505470_142.JPEG
cornet-s,2,815,NaN,bottle,keyboard,0.35,2095_nse_dnn_0.35_keyboard_10_n03085013_22438.JPEG
cornet-s,2,816,NaN,bottle,keyboard,0.35,2096_nse_dnn_0.35_keyboard_10_n03085013_23284.JPEG
cornet-s,2,817,NaN,clock,keyboard,0.35,2097_nse_dnn_0.35_keyboard_10_n03085013_20424.JPEG
cornet-s,2,818,NaN,bottle,keyboard,0.35,2098_nse_dnn_0.35_keyboard_10_n04505470_4620.JPEG
cornet-s,2,819,NaN,bottle,keyboard,0.35,2099_nse_dnn_0.35_keyboard_10_n04505470_2740.JPEG
cornet-s,2,820,NaN,chair,keyboard,0.35,2100_nse_dnn_0.35_keyboard_10_n03085013_21210.JPEG
cornet-s,2,821,NaN,clock,elephant,0.35,2101_nse_dnn_0.35_elephant_10_n02504458_5008.JPEG
cornet-s,2,822,NaN,bottle,elephant,0.35,2102_nse_dnn_0.35_elephant_10_n02504458_4468.JPEG
cornet-s,2,823,NaN,clock,elephant,0.35,2103_nse_dnn_0.35_elephant_10_n02504458_6314.JPEG
cornet-s,2,824,NaN,bottle,elephant,0.35,2104_nse_dnn_0.35_elephant_10_n02504013_8007.JPEG
cornet-s,2,825,NaN,clock,elephant,0.35,2105_nse_dnn_0.35_elephant_10_n02504458_5474.JPEG
cornet-s,2,826,NaN,bear,elephant,0.35,2106_nse_dnn_0.35_elephant_10_n02504458_1735.JPEG
cornet-s,2,827,NaN,bear,elephant,0.35,2107_nse_dnn_0.35_elephant_10_n02504458_1837.JPEG
cornet-s,2,828,NaN,clock,elephant,0.35,2108_nse_dnn_0.35_elephant_10_n02504013_6590.JPEG
cornet-s,2,829,NaN,bottle,elephant,0.35,2109_nse_dnn_0.35_elephant_10_n02504013_8534.JPEG
cornet-s,2,830,NaN,bottle,elephant,0.35,2110_nse_dnn_0.35_elephant_10_n02504458_2026.JPEG
cornet-s,2,831,NaN,bottle,bicycle,0.35,2111_nse_dnn_0.35_bicycle_10_n02835271_24679.JPEG
cornet-s,2,832,NaN,bottle,bicycle,0.35,2112_nse_dnn_0.35_bicycle_10_n02835271_10849.JPEG
cornet-s,2,833,NaN,clock,bicycle,0.35,2113_nse_dnn_0.35_bicycle_10_n03792782_50972.JPEG
cornet-s,2,834,NaN,bottle,bicycle,0.35,2114_nse_dnn_0.35_bicycle_10_n03792782_10367.JPEG
cornet-s,2,835,NaN,clock,bicycle,0.35,2115_nse_dnn_0.35_bicycle_10_n02835271_7762.JPEG
cornet-s,2,836,NaN,clock,bicycle,0.35,2116_nse_dnn_0.35_bicycle_10_n02835271_43.JPEG
cornet-s,2,837,NaN,bottle,bicycle,0.35,2117_nse_dnn_0.35_bicycle_10_n03792782_24085.JPEG
cornet-s,2,838,NaN,bottle,bicycle,0.35,2118_nse_dnn_0.35_bicycle_10_n02835271_2074.JPEG
cornet-s,2,839,NaN,bottle,bicycle,0.35,2119_nse_dnn_0.35_bicycle_10_n03792782_13735.JPEG
cornet-s,2,840,NaN,bottle,bicycle,0.35,2120_nse_dnn_0.35_bicycle_10_n02835271_8417.JPEG
cornet-s,2,841,NaN,clock,airplane,0.35,2121_nse_dnn_0.35_airplane_10_n02690373_4921.JPEG
cornet-s,2,842,NaN,bottle,airplane,0.35,2122_nse_dnn_0.35_airplane_10_n02690373_9533.JPEG
cornet-s,2,843,NaN,bottle,airplane,0.35,2123_nse_dnn_0.35_airplane_10_n02690373_1474.JPEG
cornet-s,2,844,NaN,bottle,airplane,0.35,2124_nse_dnn_0.35_airplane_10_n02690373_5160.JPEG
cornet-s,2,845,NaN,clock,airplane,0.35,2125_nse_dnn_0.35_airplane_10_n02690373_2440.JPEG
cornet-s,2,846,NaN,chair,airplane,0.35,2126_nse_dnn_0.35_airplane_10_n02690373_6231.JPEG
cornet-s,2,847,NaN,clock,airplane,0.35,2127_nse_dnn_0.35_airplane_10_n02690373_17262.JPEG
cornet-s,2,848,NaN,bottle,airplane,0.35,2128_nse_dnn_0.35_airplane_10_n02690373_3473.JPEG
cornet-s,2,849,NaN,bottle,airplane,0.35,2129_nse_dnn_0.35_airplane_10_n02690373_5980.JPEG
cornet-s,2,850,NaN,clock,airplane,0.35,2130_nse_dnn_0.35_airplane_10_n02690373_3212.JPEG
cornet-s,2,851,NaN,clock,clock,0.35,2131_nse_dnn_0.35_clock_10_n03196217_8020.JPEG
cornet-s,2,852,NaN,clock,clock,0.35,2132_nse_dnn_0.35_clock_10_n04548280_1132.JPEG
cornet-s,2,853,NaN,clock,clock,0.35,2133_nse_dnn_0.35_clock_10_n04548280_7309.JPEG
cornet-s,2,854,NaN,clock,clock,0.35,2134_nse_dnn_0.35_clock_10_n04548280_715.JPEG
cornet-s,2,855,NaN,elephant,clock,0.35,2135_nse_dnn_0.35_clock_10_n04548280_4287.JPEG
cornet-s,2,856,NaN,clock,clock,0.35,2136_nse_dnn_0.35_clock_10_n03196217_1423.JPEG
cornet-s,2,857,NaN,clock,clock,0.35,2137_nse_dnn_0.35_clock_10_n02708093_6572.JPEG
cornet-s,2,858,NaN,bottle,clock,0.35,2138_nse_dnn_0.35_clock_10_n04548280_1810.JPEG
cornet-s,2,859,NaN,clock,clock,0.35,2139_nse_dnn_0.35_clock_10_n03196217_5433.JPEG
cornet-s,2,860,NaN,bottle,clock,0.35,2140_nse_dnn_0.35_clock_10_n04548280_3330.JPEG
cornet-s,2,861,NaN,clock,oven,0.35,2141_nse_dnn_0.35_oven_10_n04111531_8462.JPEG
cornet-s,2,862,NaN,bottle,oven,0.35,2142_nse_dnn_0.35_oven_10_n04111531_4050.JPEG
cornet-s,2,863,NaN,clock,oven,0.35,2143_nse_dnn_0.35_oven_10_n04111531_4749.JPEG
cornet-s,2,864,NaN,bottle,oven,0.35,2144_nse_dnn_0.35_oven_10_n04111531_23046.JPEG
cornet-s,2,865,NaN,clock,oven,0.35,2145_nse_dnn_0.35_oven_10_n04111531_13801.JPEG
cornet-s,2,866,NaN,clock,oven,0.35,2146_nse_dnn_0.35_oven_10_n04111531_15852.JPEG
cornet-s,2,867,NaN,chair,oven,0.35,2147_nse_dnn_0.35_oven_10_n04111531_13691.JPEG
cornet-s,2,868,NaN,clock,oven,0.35,2148_nse_dnn_0.35_oven_10_n04111531_10802.JPEG
cornet-s,2,869,NaN,bottle,oven,0.35,2149_nse_dnn_0.35_oven_10_n04111531_82.JPEG
cornet-s,2,870,NaN,bottle,oven,0.35,2150_nse_dnn_0.35_oven_10_n04111531_18916.JPEG
cornet-s,2,871,NaN,bottle,chair,0.35,2151_nse_dnn_0.35_chair_10_n04429376_17705.JPEG
cornet-s,2,872,NaN,bottle,chair,0.35,2152_nse_dnn_0.35_chair_10_n03376595_2094.JPEG
cornet-s,2,873,NaN,bottle,chair,0.35,2153_nse_dnn_0.35_chair_10_n03376595_14563.JPEG
cornet-s,2,874,NaN,bear,chair,0.35,2154_nse_dnn_0.35_chair_10_n02791124_4873.JPEG
cornet-s,2,875,NaN,clock,chair,0.35,2155_nse_dnn_0.35_chair_10_n03376595_12440.JPEG
cornet-s,2,876,NaN,bottle,chair,0.35,2156_nse_dnn_0.35_chair_10_n02791124_606.JPEG
cornet-s,2,877,NaN,cat,chair,0.35,2157_nse_dnn_0.35_chair_10_n04099969_3951.JPEG
cornet-s,2,878,NaN,clock,chair,0.35,2158_nse_dnn_0.35_chair_10_n04429376_27637.JPEG
cornet-s,2,879,NaN,clock,chair,0.35,2159_nse_dnn_0.35_chair_10_n04099969_13007.JPEG
cornet-s,2,880,NaN,bottle,chair,0.35,2160_nse_dnn_0.35_chair_10_n04429376_9715.JPEG
cornet-s,2,881,NaN,bottle,bear,0.35,2161_nse_dnn_0.35_bear_10_n02132136_1709.JPEG
cornet-s,2,882,NaN,clock,bear,0.35,2162_nse_dnn_0.35_bear_10_n02134418_4505.JPEG
cornet-s,2,883,NaN,clock,bear,0.35,2163_nse_dnn_0.35_bear_10_n02132136_1646.JPEG
cornet-s,2,884,NaN,bottle,bear,0.35,2164_nse_dnn_0.35_bear_10_n02134418_4693.JPEG
cornet-s,2,885,NaN,bottle,bear,0.35,2165_nse_dnn_0.35_bear_10_n02132136_10907.JPEG
cornet-s,2,886,NaN,bottle,bear,0.35,2166_nse_dnn_0.35_bear_10_n02132136_5317.JPEG
cornet-s,2,887,NaN,bottle,bear,0.35,2167_nse_dnn_0.35_bear_10_n02134418_455.JPEG
cornet-s,2,888,NaN,bottle,bear,0.35,2168_nse_dnn_0.35_bear_10_n02134084_5274.JPEG
cornet-s,2,889,NaN,bottle,bear,0.35,2169_nse_dnn_0.35_bear_10_n02133161_777.JPEG
cornet-s,2,890,NaN,bottle,bear,0.35,2170_nse_dnn_0.35_bear_10_n02134084_41483.JPEG
cornet-s,2,891,NaN,clock,boat,0.35,2171_nse_dnn_0.35_boat_10_n04273569_12261.JPEG
cornet-s,2,892,NaN,clock,boat,0.35,2172_nse_dnn_0.35_boat_10_n02951358_12080.JPEG
cornet-s,2,893,NaN,bottle,boat,0.35,2173_nse_dnn_0.35_boat_10_n03662601_133.JPEG
cornet-s,2,894,NaN,bottle,boat,0.35,2174_nse_dnn_0.35_boat_10_n03344393_7031.JPEG
cornet-s,2,895,NaN,bottle,boat,0.35,2175_nse_dnn_0.35_boat_10_n04273569_22576.JPEG
cornet-s,2,896,NaN,clock,boat,0.35,2176_nse_dnn_0.35_boat_10_n02951358_10519.JPEG
cornet-s,2,897,NaN,bottle,boat,0.35,2177_nse_dnn_0.35_boat_10_n03662601_2048.JPEG
cornet-s,2,898,NaN,clock,boat,0.35,2178_nse_dnn_0.35_boat_10_n03344393_2623.JPEG
cornet-s,2,899,NaN,clock,boat,0.35,2179_nse_dnn_0.35_boat_10_n04273569_5698.JPEG
cornet-s,2,900,NaN,clock,boat,0.35,2180_nse_dnn_0.35_boat_10_n03662601_862.JPEG
cornet-s,2,901,NaN,knife,cat,0.35,2181_nse_dnn_0.35_cat_10_n02125311_24579.JPEG
cornet-s,2,902,NaN,clock,cat,0.35,2182_nse_dnn_0.35_cat_10_n02125311_22060.JPEG
cornet-s,2,903,NaN,bottle,cat,0.35,2183_nse_dnn_0.35_cat_10_n02123597_3919.JPEG
cornet-s,2,904,NaN,bottle,cat,0.35,2184_nse_dnn_0.35_cat_10_n02123159_2429.JPEG
cornet-s,2,905,NaN,clock,cat,0.35,2185_nse_dnn_0.35_cat_10_n02124075_10903.JPEG
cornet-s,2,906,NaN,clock,cat,0.35,2186_nse_dnn_0.35_cat_10_n02123045_21678.JPEG
cornet-s,2,907,NaN,clock,cat,0.35,2187_nse_dnn_0.35_cat_10_n02123597_7827.JPEG
cornet-s,2,908,NaN,clock,cat,0.35,2188_nse_dnn_0.35_cat_10_n02125311_15530.JPEG
cornet-s,2,909,NaN,bottle,cat,0.35,2189_nse_dnn_0.35_cat_10_n02123045_11834.JPEG
cornet-s,2,910,NaN,bottle,cat,0.35,2190_nse_dnn_0.35_cat_10_n02125311_55486.JPEG
cornet-s,2,911,NaN,clock,bottle,0.35,2191_nse_dnn_0.35_bottle_10_n03983396_7744.JPEG
cornet-s,2,912,NaN,bottle,bottle,0.35,2192_nse_dnn_0.35_bottle_10_n04591713_5545.JPEG
cornet-s,2,913,NaN,elephant,bottle,0.35,2193_nse_dnn_0.35_bottle_10_n02823428_7931.JPEG
cornet-s,2,914,NaN,bottle,bottle,0.35,2194_nse_dnn_0.35_bottle_10_n02823428_10701.JPEG
cornet-s,2,915,NaN,clock,bottle,0.35,2195_nse_dnn_0.35_bottle_10_n03983396_20.JPEG
cornet-s,2,916,NaN,clock,bottle,0.35,2196_nse_dnn_0.35_bottle_10_n03937543_295.JPEG
cornet-s,2,917,NaN,clock,bottle,0.35,2197_nse_dnn_0.35_bottle_10_n04579145_4713.JPEG
cornet-s,2,918,NaN,bottle,bottle,0.35,2198_nse_dnn_0.35_bottle_10_n03983396_4843.JPEG
cornet-s,2,919,NaN,bottle,bottle,0.35,2199_nse_dnn_0.35_bottle_10_n03983396_22979.JPEG
cornet-s,2,920,NaN,clock,bottle,0.35,2200_nse_dnn_0.35_bottle_10_n03983396_621.JPEG
cornet-s,2,921,NaN,bottle,truck,0.35,2201_nse_dnn_0.35_truck_10_n03417042_20123.JPEG
cornet-s,2,922,NaN,bottle,truck,0.35,2202_nse_dnn_0.35_truck_10_n03796401_3208.JPEG
cornet-s,2,923,NaN,bottle,truck,0.35,2203_nse_dnn_0.35_truck_10_n03417042_12096.JPEG
cornet-s,2,924,NaN,clock,truck,0.35,2204_nse_dnn_0.35_truck_10_n03417042_12601.JPEG
cornet-s,2,925,NaN,clock,truck,0.35,2205_nse_dnn_0.35_truck_10_n03796401_1758.JPEG
cornet-s,2,926,NaN,bottle,truck,0.35,2206_nse_dnn_0.35_truck_10_n04467665_41729.JPEG
cornet-s,2,927,NaN,clock,truck,0.35,2207_nse_dnn_0.35_truck_10_n03417042_5024.JPEG
cornet-s,2,928,NaN,clock,truck,0.35,2208_nse_dnn_0.35_truck_10_n04467665_32438.JPEG
cornet-s,2,929,NaN,chair,truck,0.35,2209_nse_dnn_0.35_truck_10_n04467665_10025.JPEG
cornet-s,2,930,NaN,clock,truck,0.35,2210_nse_dnn_0.35_truck_10_n04467665_12845.JPEG
cornet-s,2,931,NaN,bottle,car,0.35,2211_nse_dnn_0.35_car_10_n02814533_10069.JPEG
cornet-s,2,932,NaN,bottle,car,0.35,2212_nse_dnn_0.35_car_10_n02814533_31821.JPEG
cornet-s,2,933,NaN,bottle,car,0.35,2213_nse_dnn_0.35_car_10_n04285008_2234.JPEG
cornet-s,2,934,NaN,clock,car,0.35,2214_nse_dnn_0.35_car_10_n04285008_820.JPEG
cornet-s,2,935,NaN,bottle,car,0.35,2215_nse_dnn_0.35_car_10_n03100240_15686.JPEG
cornet-s,2,936,NaN,clock,car,0.35,2216_nse_dnn_0.35_car_10_n03100240_388.JPEG
cornet-s,2,937,NaN,boat,car,0.35,2217_nse_dnn_0.35_car_10_n03100240_3398.JPEG
cornet-s,2,938,NaN,bottle,car,0.35,2218_nse_dnn_0.35_car_10_n04285008_10711.JPEG
cornet-s,2,939,NaN,clock,car,0.35,2219_nse_dnn_0.35_car_10_n02814533_3754.JPEG
cornet-s,2,940,NaN,chair,car,0.35,2220_nse_dnn_0.35_car_10_n03100240_13410.JPEG
cornet-s,2,941,NaN,bottle,bird,0.35,2221_nse_dnn_0.35_bird_10_n01622779_539.JPEG
cornet-s,2,942,NaN,bottle,bird,0.35,2222_nse_dnn_0.35_bird_10_n01819313_6402.JPEG
cornet-s,2,943,NaN,bottle,bird,0.35,2223_nse_dnn_0.35_bird_10_n01795545_13990.JPEG
cornet-s,2,944,NaN,clock,bird,0.35,2224_nse_dnn_0.35_bird_10_n02011460_4812.JPEG
cornet-s,2,945,NaN,clock,bird,0.35,2225_nse_dnn_0.35_bird_10_n02013706_7606.JPEG
cornet-s,2,946,NaN,clock,bird,0.35,2226_nse_dnn_0.35_bird_10_n01514859_18099.JPEG
cornet-s,2,947,NaN,bottle,bird,0.35,2227_nse_dnn_0.35_bird_10_n01582220_5587.JPEG
cornet-s,2,948,NaN,clock,bird,0.35,2228_nse_dnn_0.35_bird_10_n01855672_8354.JPEG
cornet-s,2,949,NaN,clock,bird,0.35,2229_nse_dnn_0.35_bird_10_n02007558_10912.JPEG
cornet-s,2,950,NaN,clock,bird,0.35,2230_nse_dnn_0.35_bird_10_n01537544_15824.JPEG
cornet-s,2,951,NaN,clock,dog,0.35,2231_nse_dnn_0.35_dog_10_n02102177_4024.JPEG
cornet-s,2,952,NaN,bottle,dog,0.35,2232_nse_dnn_0.35_dog_10_n02106382_4931.JPEG
cornet-s,2,953,NaN,bottle,dog,0.35,2233_nse_dnn_0.35_dog_10_n02108551_23624.JPEG
cornet-s,2,954,NaN,clock,dog,0.35,2234_nse_dnn_0.35_dog_10_n02093256_14890.JPEG
cornet-s,2,955,NaN,clock,dog,0.35,2235_nse_dnn_0.35_dog_10_n02113624_8513.JPEG
cornet-s,2,956,NaN,clock,dog,0.35,2236_nse_dnn_0.35_dog_10_n02100877_30976.JPEG
cornet-s,2,957,NaN,clock,dog,0.35,2237_nse_dnn_0.35_dog_10_n02095570_9330.JPEG
cornet-s,2,958,NaN,bottle,dog,0.35,2238_nse_dnn_0.35_dog_10_n02086079_520.JPEG
cornet-s,2,959,NaN,bottle,dog,0.35,2239_nse_dnn_0.35_dog_10_n02097209_6701.JPEG
cornet-s,2,960,NaN,clock,dog,0.35,2240_nse_dnn_0.35_dog_10_n02102480_7803.JPEG
cornet-s,2,961,NaN,clock,knife,0.60,2241_nse_dnn_0.60_knife_10_n03041632_11603.JPEG
cornet-s,2,962,NaN,clock,knife,0.60,2242_nse_dnn_0.60_knife_10_n03041632_56217.JPEG
cornet-s,2,963,NaN,clock,knife,0.60,2243_nse_dnn_0.60_knife_10_n03041632_46091.JPEG
cornet-s,2,964,NaN,bottle,knife,0.60,2244_nse_dnn_0.60_knife_10_n03041632_28710.JPEG
cornet-s,2,965,NaN,clock,knife,0.60,2245_nse_dnn_0.60_knife_10_n03041632_32979.JPEG
cornet-s,2,966,NaN,bottle,knife,0.60,2246_nse_dnn_0.60_knife_10_n03041632_94155.JPEG
cornet-s,2,967,NaN,bottle,knife,0.60,2247_nse_dnn_0.60_knife_10_n03041632_45622.JPEG
cornet-s,2,968,NaN,clock,knife,0.60,2248_nse_dnn_0.60_knife_10_n03041632_126.JPEG
cornet-s,2,969,NaN,clock,knife,0.60,2249_nse_dnn_0.60_knife_10_n03041632_36390.JPEG
cornet-s,2,970,NaN,clock,knife,0.60,2250_nse_dnn_0.60_knife_10_n03041632_30602.JPEG
cornet-s,2,971,NaN,clock,keyboard,0.60,2251_nse_dnn_0.60_keyboard_10_n03085013_9653.JPEG
cornet-s,2,972,NaN,clock,keyboard,0.60,2252_nse_dnn_0.60_keyboard_10_n03085013_20594.JPEG
cornet-s,2,973,NaN,clock,keyboard,0.60,2253_nse_dnn_0.60_keyboard_10_n03085013_18788.JPEG
cornet-s,2,974,NaN,clock,keyboard,0.60,2254_nse_dnn_0.60_keyboard_10_n03085013_5568.JPEG
cornet-s,2,975,NaN,bottle,keyboard,0.60,2255_nse_dnn_0.60_keyboard_10_n04505470_4753.JPEG
cornet-s,2,976,NaN,bottle,keyboard,0.60,2256_nse_dnn_0.60_keyboard_10_n04505470_3064.JPEG
cornet-s,2,977,NaN,clock,keyboard,0.60,2257_nse_dnn_0.60_keyboard_10_n03085013_16359.JPEG
cornet-s,2,978,NaN,clock,keyboard,0.60,2258_nse_dnn_0.60_keyboard_10_n03085013_23549.JPEG
cornet-s,2,979,NaN,clock,keyboard,0.60,2259_nse_dnn_0.60_keyboard_10_n04505470_704.JPEG
cornet-s,2,980,NaN,clock,keyboard,0.60,2260_nse_dnn_0.60_keyboard_10_n03085013_21282.JPEG
cornet-s,2,981,NaN,clock,elephant,0.60,2261_nse_dnn_0.60_elephant_10_n02504013_2609.JPEG
cornet-s,2,982,NaN,clock,elephant,0.60,2262_nse_dnn_0.60_elephant_10_n02504013_4295.JPEG
cornet-s,2,983,NaN,clock,elephant,0.60,2263_nse_dnn_0.60_elephant_10_n02504458_7966.JPEG
cornet-s,2,984,NaN,bottle,elephant,0.60,2264_nse_dnn_0.60_elephant_10_n02504458_1715.JPEG
cornet-s,2,985,NaN,clock,elephant,0.60,2265_nse_dnn_0.60_elephant_10_n02504458_3878.JPEG
cornet-s,2,986,NaN,bottle,elephant,0.60,2266_nse_dnn_0.60_elephant_10_n02504458_5141.JPEG
cornet-s,2,987,NaN,clock,elephant,0.60,2267_nse_dnn_0.60_elephant_10_n02504013_22131.JPEG
cornet-s,2,988,NaN,bottle,elephant,0.60,2268_nse_dnn_0.60_elephant_10_n02504013_5014.JPEG
cornet-s,2,989,NaN,clock,elephant,0.60,2269_nse_dnn_0.60_elephant_10_n02504458_1018.JPEG
cornet-s,2,990,NaN,clock,elephant,0.60,2270_nse_dnn_0.60_elephant_10_n02504013_7659.JPEG
cornet-s,2,991,NaN,clock,bicycle,0.60,2271_nse_dnn_0.60_bicycle_10_n03792782_38641.JPEG
cornet-s,2,992,NaN,clock,bicycle,0.60,2272_nse_dnn_0.60_bicycle_10_n02835271_7570.JPEG
cornet-s,2,993,NaN,clock,bicycle,0.60,2273_nse_dnn_0.60_bicycle_10_n02835271_21216.JPEG
cornet-s,2,994,NaN,bottle,bicycle,0.60,2274_nse_dnn_0.60_bicycle_10_n02835271_4440.JPEG
cornet-s,2,995,NaN,bottle,bicycle,0.60,2275_nse_dnn_0.60_bicycle_10_n03792782_16290.JPEG
cornet-s,2,996,NaN,clock,bicycle,0.60,2276_nse_dnn_0.60_bicycle_10_n02835271_4667.JPEG
cornet-s,2,997,NaN,bottle,bicycle,0.60,2277_nse_dnn_0.60_bicycle_10_n03792782_34550.JPEG
cornet-s,2,998,NaN,clock,bicycle,0.60,2278_nse_dnn_0.60_bicycle_10_n03792782_5333.JPEG
cornet-s,2,999,NaN,clock,bicycle,0.60,2279_nse_dnn_0.60_bicycle_10_n03792782_18190.JPEG
cornet-s,2,1000,NaN,clock,bicycle,0.60,2280_nse_dnn_0.60_bicycle_10_n02835271_7284.JPEG
cornet-s,2,1001,NaN,clock,airplane,0.60,2281_nse_dnn_0.60_airplane_10_n02690373_7401.JPEG
cornet-s,2,1002,NaN,clock,airplane,0.60,2282_nse_dnn_0.60_airplane_10_n02690373_8950.JPEG
cornet-s,2,1003,NaN,clock,airplane,0.60,2283_nse_dnn_0.60_airplane_10_n02690373_6614.JPEG
cornet-s,2,1004,NaN,clock,airplane,0.60,2284_nse_dnn_0.60_airplane_10_n02690373_4225.JPEG
cornet-s,2,1005,NaN,bottle,airplane,0.60,2285_nse_dnn_0.60_airplane_10_n02690373_2521.JPEG
cornet-s,2,1006,NaN,clock,airplane,0.60,2286_nse_dnn_0.60_airplane_10_n02690373_7573.JPEG
cornet-s,2,1007,NaN,clock,airplane,0.60,2287_nse_dnn_0.60_airplane_10_n02690373_9445.JPEG
cornet-s,2,1008,NaN,clock,airplane,0.60,2288_nse_dnn_0.60_airplane_10_n02690373_10231.JPEG
cornet-s,2,1009,NaN,bottle,airplane,0.60,2289_nse_dnn_0.60_airplane_10_n02690373_6755.JPEG
cornet-s,2,1010,NaN,bottle,airplane,0.60,2290_nse_dnn_0.60_airplane_10_n02690373_9618.JPEG
cornet-s,2,1011,NaN,clock,clock,0.60,2291_nse_dnn_0.60_clock_10_n03196217_1573.JPEG
cornet-s,2,1012,NaN,clock,clock,0.60,2292_nse_dnn_0.60_clock_10_n02708093_8386.JPEG
cornet-s,2,1013,NaN,clock,clock,0.60,2293_nse_dnn_0.60_clock_10_n03196217_1984.JPEG
cornet-s,2,1014,NaN,clock,clock,0.60,2294_nse_dnn_0.60_clock_10_n04548280_2957.JPEG
cornet-s,2,1015,NaN,clock,clock,0.60,2295_nse_dnn_0.60_clock_10_n02708093_6718.JPEG
cornet-s,2,1016,NaN,clock,clock,0.60,2296_nse_dnn_0.60_clock_10_n04548280_1535.JPEG
cornet-s,2,1017,NaN,clock,clock,0.60,2297_nse_dnn_0.60_clock_10_n04548280_5278.JPEG
cornet-s,2,1018,NaN,clock,clock,0.60,2298_nse_dnn_0.60_clock_10_n03196217_1590.JPEG
cornet-s,2,1019,NaN,clock,clock,0.60,2299_nse_dnn_0.60_clock_10_n02708093_3755.JPEG
cornet-s,2,1020,NaN,clock,clock,0.60,2300_nse_dnn_0.60_clock_10_n03196217_2639.JPEG
cornet-s,2,1021,NaN,clock,oven,0.60,2301_nse_dnn_0.60_oven_10_n04111531_9411.JPEG
cornet-s,2,1022,NaN,clock,oven,0.60,2302_nse_dnn_0.60_oven_10_n04111531_6568.JPEG
cornet-s,2,1023,NaN,bottle,oven,0.60,2303_nse_dnn_0.60_oven_10_n04111531_2296.JPEG
cornet-s,2,1024,NaN,clock,oven,0.60,2304_nse_dnn_0.60_oven_10_n04111531_9962.JPEG
cornet-s,2,1025,NaN,clock,oven,0.60,2305_nse_dnn_0.60_oven_10_n04111531_13113.JPEG
cornet-s,2,1026,NaN,clock,oven,0.60,2306_nse_dnn_0.60_oven_10_n04111531_10521.JPEG
cornet-s,2,1027,NaN,bottle,oven,0.60,2307_nse_dnn_0.60_oven_10_n04111531_4392.JPEG
cornet-s,2,1028,NaN,clock,oven,0.60,2308_nse_dnn_0.60_oven_10_n04111531_6415.JPEG
cornet-s,2,1029,NaN,bottle,oven,0.60,2309_nse_dnn_0.60_oven_10_n04111531_21176.JPEG
cornet-s,2,1030,NaN,clock,oven,0.60,2310_nse_dnn_0.60_oven_10_n04111531_10313.JPEG
cornet-s,2,1031,NaN,clock,chair,0.60,2311_nse_dnn_0.60_chair_10_n03376595_5166.JPEG
cornet-s,2,1032,NaN,clock,chair,0.60,2312_nse_dnn_0.60_chair_10_n04429376_24699.JPEG
cornet-s,2,1033,NaN,bottle,chair,0.60,2313_nse_dnn_0.60_chair_10_n04099969_2758.JPEG
cornet-s,2,1034,NaN,clock,chair,0.60,2314_nse_dnn_0.60_chair_10_n03376595_11319.JPEG
cornet-s,2,1035,NaN,clock,chair,0.60,2315_nse_dnn_0.60_chair_10_n03376595_2368.JPEG
cornet-s,2,1036,NaN,clock,chair,0.60,2316_nse_dnn_0.60_chair_10_n02791124_3431.JPEG
cornet-s,2,1037,NaN,clock,chair,0.60,2317_nse_dnn_0.60_chair_10_n02791124_4306.JPEG
cornet-s,2,1038,NaN,bottle,chair,0.60,2318_nse_dnn_0.60_chair_10_n02791124_6548.JPEG
cornet-s,2,1039,NaN,clock,chair,0.60,2319_nse_dnn_0.60_chair_10_n04099969_7925.JPEG
cornet-s,2,1040,NaN,clock,chair,0.60,2320_nse_dnn_0.60_chair_10_n02791124_8002.JPEG
cornet-s,2,1041,NaN,clock,bear,0.60,2321_nse_dnn_0.60_bear_10_n02134418_2170.JPEG
cornet-s,2,1042,NaN,clock,bear,0.60,2322_nse_dnn_0.60_bear_10_n02133161_958.JPEG
cornet-s,2,1043,NaN,bottle,bear,0.60,2323_nse_dnn_0.60_bear_10_n02134418_1605.JPEG
cornet-s,2,1044,NaN,bottle,bear,0.60,2324_nse_dnn_0.60_bear_10_n02133161_3553.JPEG
cornet-s,2,1045,NaN,clock,bear,0.60,2325_nse_dnn_0.60_bear_10_n02132136_295.JPEG
cornet-s,2,1046,NaN,clock,bear,0.60,2326_nse_dnn_0.60_bear_10_n02134084_9562.JPEG
cornet-s,2,1047,NaN,bottle,bear,0.60,2327_nse_dnn_0.60_bear_10_n02133161_2744.JPEG
cornet-s,2,1048,NaN,clock,bear,0.60,2328_nse_dnn_0.60_bear_10_n02132136_1532.JPEG
cornet-s,2,1049,NaN,clock,bear,0.60,2329_nse_dnn_0.60_bear_10_n02133161_2814.JPEG
cornet-s,2,1050,NaN,clock,bear,0.60,2330_nse_dnn_0.60_bear_10_n02134084_4625.JPEG
cornet-s,2,1051,NaN,bottle,boat,0.60,2331_nse_dnn_0.60_boat_10_n02951358_4461.JPEG
cornet-s,2,1052,NaN,bottle,boat,0.60,2332_nse_dnn_0.60_boat_10_n03344393_9268.JPEG
cornet-s,2,1053,NaN,bottle,boat,0.60,2333_nse_dnn_0.60_boat_10_n02951358_29382.JPEG
cornet-s,2,1054,NaN,bottle,boat,0.60,2334_nse_dnn_0.60_boat_10_n03344393_6424.JPEG
cornet-s,2,1055,NaN,bottle,boat,0.60,2335_nse_dnn_0.60_boat_10_n04612504_3678.JPEG
cornet-s,2,1056,NaN,bottle,boat,0.60,2336_nse_dnn_0.60_boat_10_n02951358_3834.JPEG
cornet-s,2,1057,NaN,clock,boat,0.60,2337_nse_dnn_0.60_boat_10_n03662601_16438.JPEG
cornet-s,2,1058,NaN,clock,boat,0.60,2338_nse_dnn_0.60_boat_10_n03662601_13847.JPEG
cornet-s,2,1059,NaN,bottle,boat,0.60,2339_nse_dnn_0.60_boat_10_n02951358_13022.JPEG
cornet-s,2,1060,NaN,clock,boat,0.60,2340_nse_dnn_0.60_boat_10_n02951358_12464.JPEG
cornet-s,2,1061,NaN,clock,cat,0.60,2341_nse_dnn_0.60_cat_10_n02125311_16544.JPEG
cornet-s,2,1062,NaN,clock,cat,0.60,2342_nse_dnn_0.60_cat_10_n02123045_8605.JPEG
cornet-s,2,1063,NaN,bottle,cat,0.60,2343_nse_dnn_0.60_cat_10_n02124075_3289.JPEG
cornet-s,2,1064,NaN,bottle,cat,0.60,2344_nse_dnn_0.60_cat_10_n02123597_11290.JPEG
cornet-s,2,1065,NaN,clock,cat,0.60,2345_nse_dnn_0.60_cat_10_n02124075_990.JPEG
cornet-s,2,1066,NaN,bottle,cat,0.60,2346_nse_dnn_0.60_cat_10_n02123597_12078.JPEG
cornet-s,2,1067,NaN,clock,cat,0.60,2347_nse_dnn_0.60_cat_10_n02123159_8161.JPEG
cornet-s,2,1068,NaN,bottle,cat,0.60,2348_nse_dnn_0.60_cat_10_n02123045_3941.JPEG
cornet-s,2,1069,NaN,clock,cat,0.60,2349_nse_dnn_0.60_cat_10_n02123394_6540.JPEG
cornet-s,2,1070,NaN,clock,cat,0.60,2350_nse_dnn_0.60_cat_10_n02124075_5726.JPEG
cornet-s,2,1071,NaN,clock,bottle,0.60,2351_nse_dnn_0.60_bottle_10_n03937543_3960.JPEG
cornet-s,2,1072,NaN,clock,bottle,0.60,2352_nse_dnn_0.60_bottle_10_n03983396_23016.JPEG
cornet-s,2,1073,NaN,clock,bottle,0.60,2353_nse_dnn_0.60_bottle_10_n04591713_6238.JPEG
cornet-s,2,1074,NaN,bottle,bottle,0.60,2354_nse_dnn_0.60_bottle_10_n04579145_2050.JPEG
cornet-s,2,1075,NaN,bottle,bottle,0.60,2355_nse_dnn_0.60_bottle_10_n04557648_8744.JPEG
cornet-s,2,1076,NaN,clock,bottle,0.60,2356_nse_dnn_0.60_bottle_10_n02823428_4051.JPEG
cornet-s,2,1077,NaN,bottle,bottle,0.60,2357_nse_dnn_0.60_bottle_10_n03983396_9674.JPEG
cornet-s,2,1078,NaN,clock,bottle,0.60,2358_nse_dnn_0.60_bottle_10_n04557648_2005.JPEG
cornet-s,2,1079,NaN,clock,bottle,0.60,2359_nse_dnn_0.60_bottle_10_n03983396_1721.JPEG
cornet-s,2,1080,NaN,clock,bottle,0.60,2360_nse_dnn_0.60_bottle_10_n03983396_7784.JPEG
cornet-s,2,1081,NaN,bottle,truck,0.60,2361_nse_dnn_0.60_truck_10_n04467665_8063.JPEG
cornet-s,2,1082,NaN,bottle,truck,0.60,2362_nse_dnn_0.60_truck_10_n04467665_7110.JPEG
cornet-s,2,1083,NaN,clock,truck,0.60,2363_nse_dnn_0.60_truck_10_n03796401_5873.JPEG
cornet-s,2,1084,NaN,clock,truck,0.60,2364_nse_dnn_0.60_truck_10_n03417042_18246.JPEG
cornet-s,2,1085,NaN,clock,truck,0.60,2365_nse_dnn_0.60_truck_10_n04467665_9160.JPEG
cornet-s,2,1086,NaN,bottle,truck,0.60,2366_nse_dnn_0.60_truck_10_n03417042_9829.JPEG
cornet-s,2,1087,NaN,bottle,truck,0.60,2367_nse_dnn_0.60_truck_10_n03417042_9062.JPEG
cornet-s,2,1088,NaN,clock,truck,0.60,2368_nse_dnn_0.60_truck_10_n03417042_768.JPEG
cornet-s,2,1089,NaN,clock,truck,0.60,2369_nse_dnn_0.60_truck_10_n04467665_64492.JPEG
cornet-s,2,1090,NaN,clock,truck,0.60,2370_nse_dnn_0.60_truck_10_n04467665_1752.JPEG
cornet-s,2,1091,NaN,clock,car,0.60,2371_nse_dnn_0.60_car_10_n02814533_49499.JPEG
cornet-s,2,1092,NaN,bottle,car,0.60,2372_nse_dnn_0.60_car_10_n03100240_15358.JPEG
cornet-s,2,1093,NaN,clock,car,0.60,2373_nse_dnn_0.60_car_10_n03100240_13345.JPEG
cornet-s,2,1094,NaN,bottle,car,0.60,2374_nse_dnn_0.60_car_10_n02814533_41200.JPEG
cornet-s,2,1095,NaN,bottle,car,0.60,2375_nse_dnn_0.60_car_10_n02814533_7769.JPEG
cornet-s,2,1096,NaN,clock,car,0.60,2376_nse_dnn_0.60_car_10_n02814533_49083.JPEG
cornet-s,2,1097,NaN,clock,car,0.60,2377_nse_dnn_0.60_car_10_n03100240_7454.JPEG
cornet-s,2,1098,NaN,clock,car,0.60,2378_nse_dnn_0.60_car_10_n04285008_2481.JPEG
cornet-s,2,1099,NaN,clock,car,0.60,2379_nse_dnn_0.60_car_10_n04285008_17059.JPEG
cornet-s,2,1100,NaN,bottle,car,0.60,2380_nse_dnn_0.60_car_10_n03100240_5488.JPEG
cornet-s,2,1101,NaN,clock,bird,0.60,2381_nse_dnn_0.60_bird_10_n01833805_6962.JPEG
cornet-s,2,1102,NaN,bottle,bird,0.60,2382_nse_dnn_0.60_bird_10_n02056570_8485.JPEG
cornet-s,2,1103,NaN,clock,bird,0.60,2383_nse_dnn_0.60_bird_10_n02013706_6304.JPEG
cornet-s,2,1104,NaN,bottle,bird,0.60,2384_nse_dnn_0.60_bird_10_n01601694_24546.JPEG
cornet-s,2,1105,NaN,clock,bird,0.60,2385_nse_dnn_0.60_bird_10_n01530575_10594.JPEG
cornet-s,2,1106,NaN,clock,bird,0.60,2386_nse_dnn_0.60_bird_10_n02037110_24086.JPEG
cornet-s,2,1107,NaN,clock,bird,0.60,2387_nse_dnn_0.60_bird_10_n01532829_25406.JPEG
cornet-s,2,1108,NaN,clock,bird,0.60,2388_nse_dnn_0.60_bird_10_n01828970_8142.JPEG
cornet-s,2,1109,NaN,clock,bird,0.60,2389_nse_dnn_0.60_bird_10_n02027492_343.JPEG
cornet-s,2,1110,NaN,clock,bird,0.60,2390_nse_dnn_0.60_bird_10_n01592084_5859.JPEG
cornet-s,2,1111,NaN,clock,dog,0.60,2391_nse_dnn_0.60_dog_10_n02091032_10288.JPEG
cornet-s,2,1112,NaN,clock,dog,0.60,2392_nse_dnn_0.60_dog_10_n02097047_3230.JPEG
cornet-s,2,1113,NaN,bottle,dog,0.60,2393_nse_dnn_0.60_dog_10_n02092002_1339.JPEG
cornet-s,2,1114,NaN,bottle,dog,0.60,2394_nse_dnn_0.60_dog_10_n02090721_6668.JPEG
cornet-s,2,1115,NaN,clock,dog,0.60,2395_nse_dnn_0.60_dog_10_n02101388_9597.JPEG
cornet-s,2,1116,NaN,clock,dog,0.60,2396_nse_dnn_0.60_dog_10_n02100236_9252.JPEG
cornet-s,2,1117,NaN,clock,dog,0.60,2397_nse_dnn_0.60_dog_10_n02098286_1310.JPEG
cornet-s,2,1118,NaN,bottle,dog,0.60,2398_nse_dnn_0.60_dog_10_n02110806_811.JPEG
cornet-s,2,1119,NaN,clock,dog,0.60,2399_nse_dnn_0.60_dog_10_n02093754_2239.JPEG
cornet-s,2,1120,NaN,bottle,dog,0.60,2400_nse_dnn_0.60_dog_10_n02105855_13303.JPEG
cornet-s,2,1121,NaN,clock,knife,0.90,2401_nse_dnn_0.90_knife_10_n03041632_32292.JPEG
cornet-s,2,1122,NaN,clock,knife,0.90,2402_nse_dnn_0.90_knife_10_n03041632_23736.JPEG
cornet-s,2,1123,NaN,clock,knife,0.90,2403_nse_dnn_0.90_knife_10_n03041632_56172.JPEG
cornet-s,2,1124,NaN,clock,knife,0.90,2404_nse_dnn_0.90_knife_10_n03041632_30286.JPEG
cornet-s,2,1125,NaN,clock,knife,0.90,2405_nse_dnn_0.90_knife_10_n03041632_19971.JPEG
cornet-s,2,1126,NaN,clock,knife,0.90,2406_nse_dnn_0.90_knife_10_n03041632_22241.JPEG
cornet-s,2,1127,NaN,clock,knife,0.90,2407_nse_dnn_0.90_knife_10_n03041632_94202.JPEG
cornet-s,2,1128,NaN,clock,knife,0.90,2408_nse_dnn_0.90_knife_10_n03041632_24998.JPEG
cornet-s,2,1129,NaN,clock,knife,0.90,2409_nse_dnn_0.90_knife_10_n03041632_1661.JPEG
cornet-s,2,1130,NaN,clock,knife,0.90,2410_nse_dnn_0.90_knife_10_n03041632_83826.JPEG
cornet-s,2,1131,NaN,clock,keyboard,0.90,2411_nse_dnn_0.90_keyboard_10_n03085013_21607.JPEG
cornet-s,2,1132,NaN,clock,keyboard,0.90,2412_nse_dnn_0.90_keyboard_10_n03085013_6405.JPEG
cornet-s,2,1133,NaN,clock,keyboard,0.90,2413_nse_dnn_0.90_keyboard_10_n03085013_16636.JPEG
cornet-s,2,1134,NaN,clock,keyboard,0.90,2414_nse_dnn_0.90_keyboard_10_n04505470_2654.JPEG
cornet-s,2,1135,NaN,clock,keyboard,0.90,2415_nse_dnn_0.90_keyboard_10_n04505470_4592.JPEG
cornet-s,2,1136,NaN,clock,keyboard,0.90,2416_nse_dnn_0.90_keyboard_10_n04505470_2306.JPEG
cornet-s,2,1137,NaN,clock,keyboard,0.90,2417_nse_dnn_0.90_keyboard_10_n03085013_4542.JPEG
cornet-s,2,1138,NaN,clock,keyboard,0.90,2418_nse_dnn_0.90_keyboard_10_n04505470_2825.JPEG
cornet-s,2,1139,NaN,clock,keyboard,0.90,2419_nse_dnn_0.90_keyboard_10_n03085013_24150.JPEG
cornet-s,2,1140,NaN,clock,keyboard,0.90,2420_nse_dnn_0.90_keyboard_10_n04505470_4611.JPEG
cornet-s,2,1141,NaN,clock,elephant,0.90,2421_nse_dnn_0.90_elephant_10_n02504013_5582.JPEG
cornet-s,2,1142,NaN,clock,elephant,0.90,2422_nse_dnn_0.90_elephant_10_n02504458_817.JPEG
cornet-s,2,1143,NaN,clock,elephant,0.90,2423_nse_dnn_0.90_elephant_10_n02504458_8422.JPEG
cornet-s,2,1144,NaN,clock,elephant,0.90,2424_nse_dnn_0.90_elephant_10_n02504013_4247.JPEG
cornet-s,2,1145,NaN,clock,elephant,0.90,2425_nse_dnn_0.90_elephant_10_n02504013_19236.JPEG
cornet-s,2,1146,NaN,clock,elephant,0.90,2426_nse_dnn_0.90_elephant_10_n02504013_10922.JPEG
cornet-s,2,1147,NaN,clock,elephant,0.90,2427_nse_dnn_0.90_elephant_10_n02504458_2109.JPEG
cornet-s,2,1148,NaN,clock,elephant,0.90,2428_nse_dnn_0.90_elephant_10_n02504458_13245.JPEG
cornet-s,2,1149,NaN,clock,elephant,0.90,2429_nse_dnn_0.90_elephant_10_n02504458_3731.JPEG
cornet-s,2,1150,NaN,clock,elephant,0.90,2430_nse_dnn_0.90_elephant_10_n02504458_3163.JPEG
cornet-s,2,1151,NaN,clock,bicycle,0.90,2431_nse_dnn_0.90_bicycle_10_n03792782_17737.JPEG
cornet-s,2,1152,NaN,clock,bicycle,0.90,2432_nse_dnn_0.90_bicycle_10_n02835271_508.JPEG
cornet-s,2,1153,NaN,clock,bicycle,0.90,2433_nse_dnn_0.90_bicycle_10_n03792782_7773.JPEG
cornet-s,2,1154,NaN,clock,bicycle,0.90,2434_nse_dnn_0.90_bicycle_10_n03792782_23560.JPEG
cornet-s,2,1155,NaN,clock,bicycle,0.90,2435_nse_dnn_0.90_bicycle_10_n02835271_3466.JPEG
cornet-s,2,1156,NaN,clock,bicycle,0.90,2436_nse_dnn_0.90_bicycle_10_n03792782_521.JPEG
cornet-s,2,1157,NaN,clock,bicycle,0.90,2437_nse_dnn_0.90_bicycle_10_n03792782_7165.JPEG
cornet-s,2,1158,NaN,clock,bicycle,0.90,2438_nse_dnn_0.90_bicycle_10_n02835271_18276.JPEG
cornet-s,2,1159,NaN,clock,bicycle,0.90,2439_nse_dnn_0.90_bicycle_10_n02835271_14176.JPEG
cornet-s,2,1160,NaN,clock,bicycle,0.90,2440_nse_dnn_0.90_bicycle_10_n03792782_57971.JPEG
cornet-s,2,1161,NaN,clock,airplane,0.90,2441_nse_dnn_0.90_airplane_10_n02690373_2070.JPEG
cornet-s,2,1162,NaN,clock,airplane,0.90,2442_nse_dnn_0.90_airplane_10_n02690373_10228.JPEG
cornet-s,2,1163,NaN,clock,airplane,0.90,2443_nse_dnn_0.90_airplane_10_n02690373_13326.JPEG
cornet-s,2,1164,NaN,clock,airplane,0.90,2444_nse_dnn_0.90_airplane_10_n02690373_6212.JPEG
cornet-s,2,1165,NaN,clock,airplane,0.90,2445_nse_dnn_0.90_airplane_10_n02690373_1051.JPEG
cornet-s,2,1166,NaN,clock,airplane,0.90,2446_nse_dnn_0.90_airplane_10_n02690373_9086.JPEG
cornet-s,2,1167,NaN,clock,airplane,0.90,2447_nse_dnn_0.90_airplane_10_n02690373_19749.JPEG
cornet-s,2,1168,NaN,clock,airplane,0.90,2448_nse_dnn_0.90_airplane_10_n02690373_5106.JPEG
cornet-s,2,1169,NaN,clock,airplane,0.90,2449_nse_dnn_0.90_airplane_10_n02690373_5693.JPEG
cornet-s,2,1170,NaN,clock,airplane,0.90,2450_nse_dnn_0.90_airplane_10_n02690373_4199.JPEG
cornet-s,2,1171,NaN,clock,clock,0.90,2451_nse_dnn_0.90_clock_10_n03196217_5688.JPEG
cornet-s,2,1172,NaN,clock,clock,0.90,2452_nse_dnn_0.90_clock_10_n02708093_596.JPEG
cornet-s,2,1173,NaN,clock,clock,0.90,2453_nse_dnn_0.90_clock_10_n04548280_2943.JPEG
cornet-s,2,1174,NaN,clock,clock,0.90,2454_nse_dnn_0.90_clock_10_n03196217_2291.JPEG
cornet-s,2,1175,NaN,clock,clock,0.90,2455_nse_dnn_0.90_clock_10_n02708093_3550.JPEG
cornet-s,2,1176,NaN,clock,clock,0.90,2456_nse_dnn_0.90_clock_10_n03196217_21.JPEG
cornet-s,2,1177,NaN,clock,clock,0.90,2457_nse_dnn_0.90_clock_10_n03196217_713.JPEG
cornet-s,2,1178,NaN,clock,clock,0.90,2458_nse_dnn_0.90_clock_10_n02708093_3723.JPEG
cornet-s,2,1179,NaN,clock,clock,0.90,2459_nse_dnn_0.90_clock_10_n04548280_2776.JPEG
cornet-s,2,1180,NaN,clock,clock,0.90,2460_nse_dnn_0.90_clock_10_n02708093_3674.JPEG
cornet-s,2,1181,NaN,clock,oven,0.90,2461_nse_dnn_0.90_oven_10_n04111531_16463.JPEG
cornet-s,2,1182,NaN,clock,oven,0.90,2462_nse_dnn_0.90_oven_10_n04111531_537.JPEG
cornet-s,2,1183,NaN,clock,oven,0.90,2463_nse_dnn_0.90_oven_10_n04111531_1303.JPEG
cornet-s,2,1184,NaN,clock,oven,0.90,2464_nse_dnn_0.90_oven_10_n04111531_9762.JPEG
cornet-s,2,1185,NaN,clock,oven,0.90,2465_nse_dnn_0.90_oven_10_n04111531_3777.JPEG
cornet-s,2,1186,NaN,clock,oven,0.90,2466_nse_dnn_0.90_oven_10_n04111531_5802.JPEG
cornet-s,2,1187,NaN,clock,oven,0.90,2467_nse_dnn_0.90_oven_10_n04111531_11230.JPEG
cornet-s,2,1188,NaN,clock,oven,0.90,2468_nse_dnn_0.90_oven_10_n04111531_10093.JPEG
cornet-s,2,1189,NaN,clock,oven,0.90,2469_nse_dnn_0.90_oven_10_n04111531_16708.JPEG
cornet-s,2,1190,NaN,clock,oven,0.90,2470_nse_dnn_0.90_oven_10_n04111531_1073.JPEG
