subj,session,trial,rt,object_response,category,condition,imagename
cornet-s,4,1,NaN,knife,knife,0.00,3841_nse_dnn_0.00_knife_10_n03041632_46185.JPEG
cornet-s,4,2,NaN,knife,knife,0.00,3842_nse_dnn_0.00_knife_10_n03041632_87380.JPEG
cornet-s,4,3,NaN,airplane,knife,0.00,3843_nse_dnn_0.00_knife_10_n03041632_11613.JPEG
cornet-s,4,4,NaN,knife,knife,0.00,3844_nse_dnn_0.00_knife_10_n03041632_43634.JPEG
cornet-s,4,5,NaN,knife,knife,0.00,3845_nse_dnn_0.00_knife_10_n03041632_29276.JPEG
cornet-s,4,6,NaN,bottle,knife,0.00,3846_nse_dnn_0.00_knife_10_n03041632_2438.JPEG
cornet-s,4,7,NaN,knife,knife,0.00,3847_nse_dnn_0.00_knife_10_n03041632_20770.JPEG
cornet-s,4,8,NaN,knife,knife,0.00,3848_nse_dnn_0.00_knife_10_n03041632_31301.JPEG
cornet-s,4,9,NaN,knife,knife,0.00,3849_nse_dnn_0.00_knife_10_n03041632_16606.JPEG
cornet-s,4,10,NaN,knife,knife,0.00,3850_nse_dnn_0.00_knife_10_n03041632_14224.JPEG
cornet-s,4,11,NaN,keyboard,keyboard,0.00,3851_nse_dnn_0.00_keyboard_10_n04505470_6421.JPEG
cornet-s,4,12,NaN,keyboard,keyboard,0.00,3852_nse_dnn_0.00_keyboard_10_n04505470_9476.JPEG
cornet-s,4,13,NaN,keyboard,keyboard,0.00,3853_nse_dnn_0.00_keyboard_10_n04505470_2055.JPEG
cornet-s,4,14,NaN,keyboard,keyboard,0.00,3854_nse_dnn_0.00_keyboard_10_n03085013_19687.JPEG
cornet-s,4,15,NaN,keyboard,keyboard,0.00,3855_nse_dnn_0.00_keyboard_10_n04505470_4974.JPEG
cornet-s,4,16,NaN,keyboard,keyboard,0.00,3856_nse_dnn_0.00_keyboard_10_n03085013_22928.JPEG
cornet-s,4,17,NaN,keyboard,keyboard,0.00,3857_nse_dnn_0.00_keyboard_10_n03085013_23115.JPEG
cornet-s,4,18,NaN,keyboard,keyboard,0.00,3858_nse_dnn_0.00_keyboard_10_n03085013_7892.JPEG
cornet-s,4,19,NaN,keyboard,keyboard,0.00,3859_nse_dnn_0.00_keyboard_10_n04505470_206.JPEG
cornet-s,4,20,NaN,keyboard,keyboard,0.00,3860_nse_dnn_0.00_keyboard_10_n04505470_1040.JPEG
cornet-s,4,21,NaN,elephant,elephant,0.00,3861_nse_dnn_0.00_elephant_10_n02504013_4229.JPEG
cornet-s,4,22,NaN,elephant,elephant,0.00,3862_nse_dnn_0.00_elephant_10_n02504458_6412.JPEG
cornet-s,4,23,NaN,truck,elephant,0.00,3863_nse_dnn_0.00_elephant_10_n02504013_2686.JPEG
cornet-s,4,24,NaN,elephant,elephant,0.00,3864_nse_dnn_0.00_elephant_10_n02504458_6107.JPEG
cornet-s,4,25,NaN,elephant,elephant,0.00,3865_nse_dnn_0.00_elephant_10_n02504458_988.JPEG
cornet-s,4,26,NaN,elephant,elephant,0.00,3866_nse_dnn_0.00_elephant_10_n02504458_10058.JPEG
cornet-s,4,27,NaN,elephant,elephant,0.00,3867_nse_dnn_0.00_elephant_10_n02504013_7797.JPEG
cornet-s,4,28,NaN,elephant,elephant,0.00,3868_nse_dnn_0.00_elephant_10_n02504013_4180.JPEG
cornet-s,4,29,NaN,elephant,elephant,0.00,3869_nse_dnn_0.00_elephant_10_n02504458_57.JPEG
cornet-s,4,30,NaN,elephant,elephant,0.00,3870_nse_dnn_0.00_elephant_10_n02504013_3602.JPEG
cornet-s,4,31,NaN,bicycle,bicycle,0.00,3871_nse_dnn_0.00_bicycle_10_n02835271_3256.JPEG
cornet-s,4,32,NaN,bicycle,bicycle,0.00,3872_nse_dnn_0.00_bicycle_10_n03792782_21832.JPEG
cornet-s,4,33,NaN,bicycle,bicycle,0.00,3873_nse_dnn_0.00_bicycle_10_n02835271_7737.JPEG
cornet-s,4,34,NaN,bicycle,bicycle,0.00,3874_nse_dnn_0.00_bicycle_10_n03792782_50569.JPEG
cornet-s,4,35,NaN,bicycle,bicycle,0.00,3875_nse_dnn_0.00_bicycle_10_n03792782_13083.JPEG
cornet-s,4,36,NaN,bicycle,bicycle,0.00,3876_nse_dnn_0.00_bicycle_10_n03792782_8287.JPEG
cornet-s,4,37,NaN,bicycle,bicycle,0.00,3877_nse_dnn_0.00_bicycle_10_n02835271_2714.JPEG
cornet-s,4,38,NaN,bicycle,bicycle,0.00,3878_nse_dnn_0.00_bicycle_10_n03792782_15808.JPEG
cornet-s,4,39,NaN,bicycle,bicycle,0.00,3879_nse_dnn_0.00_bicycle_10_n03792782_30420.JPEG
cornet-s,4,40,NaN,bicycle,bicycle,0.00,3880_nse_dnn_0.00_bicycle_10_n03792782_3815.JPEG
cornet-s,4,41,NaN,airplane,airplane,0.00,3881_nse_dnn_0.00_airplane_10_n02690373_3032.JPEG
cornet-s,4,42,NaN,airplane,airplane,0.00,3882_nse_dnn_0.00_airplane_10_n02690373_813.JPEG
cornet-s,4,43,NaN,airplane,airplane,0.00,3883_nse_dnn_0.00_airplane_10_n02690373_101.JPEG
cornet-s,4,44,NaN,airplane,airplane,0.00,3884_nse_dnn_0.00_airplane_10_n02690373_8141.JPEG
cornet-s,4,45,NaN,airplane,airplane,0.00,3885_nse_dnn_0.00_airplane_10_n02690373_2468.JPEG
cornet-s,4,46,NaN,airplane,airplane,0.00,3886_nse_dnn_0.00_airplane_10_n02690373_462.JPEG
cornet-s,4,47,NaN,airplane,airplane,0.00,3887_nse_dnn_0.00_airplane_10_n02690373_8815.JPEG
cornet-s,4,48,NaN,airplane,airplane,0.00,3888_nse_dnn_0.00_airplane_10_n02690373_4552.JPEG
cornet-s,4,49,NaN,airplane,airplane,0.00,3889_nse_dnn_0.00_airplane_10_n02690373_9312.JPEG
cornet-s,4,50,NaN,airplane,airplane,0.00,3890_nse_dnn_0.00_airplane_10_n02690373_3334.JPEG
cornet-s,4,51,NaN,clock,clock,0.00,3891_nse_dnn_0.00_clock_10_n03196217_2346.JPEG
cornet-s,4,52,NaN,clock,clock,0.00,3892_nse_dnn_0.00_clock_10_n03196217_4947.JPEG
cornet-s,4,53,NaN,clock,clock,0.00,3893_nse_dnn_0.00_clock_10_n03196217_5893.JPEG
cornet-s,4,54,NaN,keyboard,clock,0.00,3894_nse_dnn_0.00_clock_10_n02708093_3622.JPEG
cornet-s,4,55,NaN,clock,clock,0.00,3895_nse_dnn_0.00_clock_10_n02708093_1461.JPEG
cornet-s,4,56,NaN,clock,clock,0.00,3896_nse_dnn_0.00_clock_10_n04548280_3398.JPEG
cornet-s,4,57,NaN,clock,clock,0.00,3897_nse_dnn_0.00_clock_10_n03196217_10717.JPEG
cornet-s,4,58,NaN,clock,clock,0.00,3898_nse_dnn_0.00_clock_10_n04548280_993.JPEG
cornet-s,4,59,NaN,clock,clock,0.00,3899_nse_dnn_0.00_clock_10_n03196217_3333.JPEG
cornet-s,4,60,NaN,clock,clock,0.00,3900_nse_dnn_0.00_clock_10_n02708093_1134.JPEG
cornet-s,4,61,NaN,oven,oven,0.00,3901_nse_dnn_0.00_oven_10_n04111531_12788.JPEG
cornet-s,4,62,NaN,oven,oven,0.00,3902_nse_dnn_0.00_oven_10_n04111531_7603.JPEG
cornet-s,4,63,NaN,bear,oven,0.00,3903_nse_dnn_0.00_oven_10_n04111531_1992.JPEG
cornet-s,4,64,NaN,knife,oven,0.00,3904_nse_dnn_0.00_oven_10_n04111531_704.JPEG
cornet-s,4,65,NaN,bottle,oven,0.00,3905_nse_dnn_0.00_oven_10_n04111531_22388.JPEG
cornet-s,4,66,NaN,elephant,oven,0.00,3906_nse_dnn_0.00_oven_10_n04111531_18592.JPEG
cornet-s,4,67,NaN,chair,oven,0.00,3907_nse_dnn_0.00_oven_10_n04111531_19126.JPEG
cornet-s,4,68,NaN,chair,oven,0.00,3908_nse_dnn_0.00_oven_10_n04111531_1674.JPEG
cornet-s,4,69,NaN,keyboard,oven,0.00,3909_nse_dnn_0.00_oven_10_n04111531_4585.JPEG
cornet-s,4,70,NaN,oven,oven,0.00,3910_nse_dnn_0.00_oven_10_n04111531_4370.JPEG
cornet-s,4,71,NaN,chair,chair,0.00,3911_nse_dnn_0.00_chair_10_n02791124_7167.JPEG
cornet-s,4,72,NaN,chair,chair,0.00,3912_nse_dnn_0.00_chair_10_n02791124_9744.JPEG
cornet-s,4,73,NaN,chair,chair,0.00,3913_nse_dnn_0.00_chair_10_n04099969_10667.JPEG
cornet-s,4,74,NaN,chair,chair,0.00,3914_nse_dnn_0.00_chair_10_n04429376_25268.JPEG
cornet-s,4,75,NaN,chair,chair,0.00,3915_nse_dnn_0.00_chair_10_n04429376_30823.JPEG
cornet-s,4,76,NaN,chair,chair,0.00,3916_nse_dnn_0.00_chair_10_n03376595_160.JPEG
cornet-s,4,77,NaN,chair,chair,0.00,3917_nse_dnn_0.00_chair_10_n04099969_44784.JPEG
cornet-s,4,78,NaN,chair,chair,0.00,3918_nse_dnn_0.00_chair_10_n03376595_5970.JPEG
cornet-s,4,79,NaN,chair,chair,0.00,3919_nse_dnn_0.00_chair_10_n04429376_55898.JPEG
cornet-s,4,80,NaN,chair,chair,0.00,3920_nse_dnn_0.00_chair_10_n03376595_426.JPEG
cornet-s,4,81,NaN,boat,bear,0.00,3921_nse_dnn_0.00_bear_10_n02133161_752.JPEG
cornet-s,4,82,NaN,elephant,bear,0.00,3922_nse_dnn_0.00_bear_10_n02134418_4685.JPEG
cornet-s,4,83,NaN,bear,bear,0.00,3923_nse_dnn_0.00_bear_10_n02133161_848.JPEG
cornet-s,4,84,NaN,elephant,bear,0.00,3924_nse_dnn_0.00_bear_10_n02132136_8539.JPEG
cornet-s,4,85,NaN,bear,bear,0.00,3925_nse_dnn_0.00_bear_10_n02134418_1263.JPEG
cornet-s,4,86,NaN,bear,bear,0.00,3926_nse_dnn_0.00_bear_10_n02132136_8033.JPEG
cornet-s,4,87,NaN,bear,bear,0.00,3927_nse_dnn_0.00_bear_10_n02134084_12801.JPEG
cornet-s,4,88,NaN,bear,bear,0.00,3928_nse_dnn_0.00_bear_10_n02132136_2815.JPEG
cornet-s,4,89,NaN,bear,bear,0.00,3929_nse_dnn_0.00_bear_10_n02134084_4547.JPEG
cornet-s,4,90,NaN,bear,bear,0.00,3930_nse_dnn_0.00_bear_10_n02134084_16127.JPEG
cornet-s,4,91,NaN,boat,boat,0.00,3931_nse_dnn_0.00_boat_10_n03344393_4341.JPEG
cornet-s,4,92,NaN,boat,boat,0.00,3932_nse_dnn_0.00_boat_10_n03662601_18610.JPEG
cornet-s,4,93,NaN,boat,boat,0.00,3933_nse_dnn_0.00_boat_10_n03662601_11862.JPEG
cornet-s,4,94,NaN,boat,boat,0.00,3934_nse_dnn_0.00_boat_10_n02951358_7451.JPEG
cornet-s,4,95,NaN,boat,boat,0.00,3935_nse_dnn_0.00_boat_10_n02951358_2813.JPEG
cornet-s,4,96,NaN,boat,boat,0.00,3936_nse_dnn_0.00_boat_10_n03344393_617.JPEG
cornet-s,4,97,NaN,boat,boat,0.00,3937_nse_dnn_0.00_boat_10_n04612504_8407.JPEG
cornet-s,4,98,NaN,boat,boat,0.00,3938_nse_dnn_0.00_boat_10_n04273569_3810.JPEG
cornet-s,4,99,NaN,boat,boat,0.00,3939_nse_dnn_0.00_boat_10_n04273569_3348.JPEG
cornet-s,4,100,NaN,boat,boat,0.00,3940_nse_dnn_0.00_boat_10_n04273569_13757.JPEG
cornet-s,4,101,NaN,dog,cat,0.00,3941_nse_dnn_0.00_cat_10_n02123597_2239.JPEG
cornet-s,4,102,NaN,cat,cat,0.00,3942_nse_dnn_0.00_cat_10_n02124075_7406.JPEG
cornet-s,4,103,NaN,cat,cat,0.00,3943_nse_dnn_0.00_cat_10_n02123159_619.JPEG
cornet-s,4,104,NaN,cat,cat,0.00,3944_nse_dnn_0.00_cat_10_n02123394_1879.JPEG
cornet-s,4,105,NaN,cat,cat,0.00,3945_nse_dnn_0.00_cat_10_n02123597_1054.JPEG
cornet-s,4,106,NaN,cat,cat,0.00,3946_nse_dnn_0.00_cat_10_n02125311_6746.JPEG
cornet-s,4,107,NaN,cat,cat,0.00,3947_nse_dnn_0.00_cat_10_n02123045_7161.JPEG
cornet-s,4,108,NaN,cat,cat,0.00,3948_nse_dnn_0.00_cat_10_n02123045_10938.JPEG
cornet-s,4,109,NaN,cat,cat,0.00,3949_nse_dnn_0.00_cat_10_n02123159_6927.JPEG
cornet-s,4,110,NaN,cat,cat,0.00,3950_nse_dnn_0.00_cat_10_n02123159_8030.JPEG
cornet-s,4,111,NaN,bottle,bottle,0.00,3951_nse_dnn_0.00_bottle_10_n02823428_1184.JPEG
cornet-s,4,112,NaN,bottle,bottle,0.00,3952_nse_dnn_0.00_bottle_10_n02823428_8365.JPEG
cornet-s,4,113,NaN,bottle,bottle,0.00,3953_nse_dnn_0.00_bottle_10_n03937543_964.JPEG
cornet-s,4,114,NaN,bottle,bottle,0.00,3954_nse_dnn_0.00_bottle_10_n03937543_2862.JPEG
cornet-s,4,115,NaN,bottle,bottle,0.00,3955_nse_dnn_0.00_bottle_10_n02823428_232.JPEG
cornet-s,4,116,NaN,keyboard,bottle,0.00,3956_nse_dnn_0.00_bottle_10_n03937543_5359.JPEG
cornet-s,4,117,NaN,knife,bottle,0.00,3957_nse_dnn_0.00_bottle_10_n04557648_31576.JPEG
cornet-s,4,118,NaN,truck,bottle,0.00,3958_nse_dnn_0.00_bottle_10_n02823428_6263.JPEG
cornet-s,4,119,NaN,bottle,bottle,0.00,3959_nse_dnn_0.00_bottle_10_n03983396_2095.JPEG
cornet-s,4,120,NaN,bottle,bottle,0.00,3960_nse_dnn_0.00_bottle_10_n03983396_17287.JPEG
cornet-s,4,121,NaN,chair,truck,0.00,3961_nse_dnn_0.00_truck_10_n04467665_43978.JPEG
cornet-s,4,122,NaN,truck,truck,0.00,3962_nse_dnn_0.00_truck_10_n04467665_16914.JPEG
cornet-s,4,123,NaN,truck,truck,0.00,3963_nse_dnn_0.00_truck_10_n03417042_5634.JPEG
cornet-s,4,124,NaN,truck,truck,0.00,3964_nse_dnn_0.00_truck_10_n03796401_21362.JPEG
cornet-s,4,125,NaN,truck,truck,0.00,3965_nse_dnn_0.00_truck_10_n03417042_1840.JPEG
cornet-s,4,126,NaN,truck,truck,0.00,3966_nse_dnn_0.00_truck_10_n04467665_64269.JPEG
cornet-s,4,127,NaN,truck,truck,0.00,3967_nse_dnn_0.00_truck_10_n03796401_27288.JPEG
cornet-s,4,128,NaN,truck,truck,0.00,3968_nse_dnn_0.00_truck_10_n03417042_18329.JPEG
cornet-s,4,129,NaN,truck,truck,0.00,3969_nse_dnn_0.00_truck_10_n03417042_7160.JPEG
cornet-s,4,130,NaN,truck,truck,0.00,3970_nse_dnn_0.00_truck_10_n03417042_2230.JPEG
cornet-s,4,131,NaN,car,car,0.00,3971_nse_dnn_0.00_car_10_n03100240_7134.JPEG
cornet-s,4,132,NaN,car,car,0.00,3972_nse_dnn_0.00_car_10_n02814533_72079.JPEG
cornet-s,4,133,NaN,car,car,0.00,3973_nse_dnn_0.00_car_10_n04285008_7630.JPEG
cornet-s,4,134,NaN,car,car,0.00,3974_nse_dnn_0.00_car_10_n02814533_5529.JPEG
cornet-s,4,135,NaN,truck,car,0.00,3975_nse_dnn_0.00_car_10_n02814533_83806.JPEG
cornet-s,4,136,NaN,car,car,0.00,3976_nse_dnn_0.00_car_10_n04285008_13131.JPEG
cornet-s,4,137,NaN,car,car,0.00,3977_nse_dnn_0.00_car_10_n02814533_3497.JPEG
cornet-s,4,138,NaN,car,car,0.00,3978_nse_dnn_0.00_car_10_n02814533_19620.JPEG
cornet-s,4,139,NaN,car,car,0.00,3979_nse_dnn_0.00_car_10_n04285008_6996.JPEG
cornet-s,4,140,NaN,car,car,0.00,3980_nse_dnn_0.00_car_10_n04285008_3514.JPEG
cornet-s,4,141,NaN,bird,bird,0.00,3981_nse_dnn_0.00_bird_10_n01797886_8111.JPEG
cornet-s,4,142,NaN,bird,bird,0.00,3982_nse_dnn_0.00_bird_10_n01824575_2719.JPEG
cornet-s,4,143,NaN,bird,bird,0.00,3983_nse_dnn_0.00_bird_10_n01817953_11717.JPEG
cornet-s,4,144,NaN,knife,bird,0.00,3984_nse_dnn_0.00_bird_10_n01829413_5691.JPEG
cornet-s,4,145,NaN,bird,bird,0.00,3985_nse_dnn_0.00_bird_10_n02006656_247.JPEG
cornet-s,4,146,NaN,airplane,bird,0.00,3986_nse_dnn_0.00_bird_10_n01828970_7308.JPEG
cornet-s,4,147,NaN,bird,bird,0.00,3987_nse_dnn_0.00_bird_10_n02017213_2529.JPEG
cornet-s,4,148,NaN,bird,bird,0.00,3988_nse_dnn_0.00_bird_10_n02013706_3808.JPEG
cornet-s,4,149,NaN,cat,bird,0.00,3989_nse_dnn_0.00_bird_10_n01797886_7547.JPEG
cornet-s,4,150,NaN,bird,bird,0.00,3990_nse_dnn_0.00_bird_10_n01833805_640.JPEG
cornet-s,4,151,NaN,dog,dog,0.00,3991_nse_dnn_0.00_dog_10_n02097209_5483.JPEG
cornet-s,4,152,NaN,dog,dog,0.00,3992_nse_dnn_0.00_dog_10_n02087046_4236.JPEG
cornet-s,4,153,NaN,dog,dog,0.00,3993_nse_dnn_0.00_dog_10_n02108422_7787.JPEG
cornet-s,4,154,NaN,dog,dog,0.00,3994_nse_dnn_0.00_dog_10_n02100583_23082.JPEG
cornet-s,4,155,NaN,dog,dog,0.00,3995_nse_dnn_0.00_dog_10_n02092002_11611.JPEG
cornet-s,4,156,NaN,dog,dog,0.00,3996_nse_dnn_0.00_dog_10_n02095570_2882.JPEG
cornet-s,4,157,NaN,dog,dog,0.00,3997_nse_dnn_0.00_dog_10_n02094258_1757.JPEG
cornet-s,4,158,NaN,dog,dog,0.00,3998_nse_dnn_0.00_dog_10_n02091032_17.JPEG
cornet-s,4,159,NaN,elephant,dog,0.00,3999_nse_dnn_0.00_dog_10_n02089973_4780.JPEG
cornet-s,4,160,NaN,dog,dog,0.00,4000_nse_dnn_0.00_dog_10_n02110958_6262.JPEG
cornet-s,4,161,NaN,clock,knife,0.03,4001_nse_dnn_0.03_knife_10_n03041632_7173.JPEG
cornet-s,4,162,NaN,knife,knife,0.03,4002_nse_dnn_0.03_knife_10_n03041632_18863.JPEG
cornet-s,4,163,NaN,knife,knife,0.03,4003_nse_dnn_0.03_knife_10_n03041632_26314.JPEG
cornet-s,4,164,NaN,knife,knife,0.03,4004_nse_dnn_0.03_knife_10_n03041632_2630.JPEG
cornet-s,4,165,NaN,knife,knife,0.03,4005_nse_dnn_0.03_knife_10_n03041632_29827.JPEG
cornet-s,4,166,NaN,knife,knife,0.03,4006_nse_dnn_0.03_knife_10_n03041632_424.JPEG
cornet-s,4,167,NaN,chair,knife,0.03,4007_nse_dnn_0.03_knife_10_n03041632_1407.JPEG
cornet-s,4,168,NaN,knife,knife,0.03,4008_nse_dnn_0.03_knife_10_n03041632_9406.JPEG
cornet-s,4,169,NaN,clock,knife,0.03,4009_nse_dnn_0.03_knife_10_n03041632_17820.JPEG
cornet-s,4,170,NaN,knife,knife,0.03,4010_nse_dnn_0.03_knife_10_n03041632_7279.JPEG
cornet-s,4,171,NaN,clock,keyboard,0.03,4011_nse_dnn_0.03_keyboard_10_n03085013_18719.JPEG
cornet-s,4,172,NaN,keyboard,keyboard,0.03,4012_nse_dnn_0.03_keyboard_10_n03085013_1129.JPEG
cornet-s,4,173,NaN,keyboard,keyboard,0.03,4013_nse_dnn_0.03_keyboard_10_n03085013_21155.JPEG
cornet-s,4,174,NaN,keyboard,keyboard,0.03,4014_nse_dnn_0.03_keyboard_10_n03085013_21008.JPEG
cornet-s,4,175,NaN,keyboard,keyboard,0.03,4015_nse_dnn_0.03_keyboard_10_n03085013_29576.JPEG
cornet-s,4,176,NaN,keyboard,keyboard,0.03,4016_nse_dnn_0.03_keyboard_10_n03085013_22002.JPEG
cornet-s,4,177,NaN,keyboard,keyboard,0.03,4017_nse_dnn_0.03_keyboard_10_n03085013_8325.JPEG
cornet-s,4,178,NaN,keyboard,keyboard,0.03,4018_nse_dnn_0.03_keyboard_10_n03085013_19818.JPEG
cornet-s,4,179,NaN,keyboard,keyboard,0.03,4019_nse_dnn_0.03_keyboard_10_n03085013_29042.JPEG
cornet-s,4,180,NaN,chair,keyboard,0.03,4020_nse_dnn_0.03_keyboard_10_n03085013_3148.JPEG
cornet-s,4,181,NaN,elephant,elephant,0.03,4021_nse_dnn_0.03_elephant_10_n02504458_5155.JPEG
cornet-s,4,182,NaN,elephant,elephant,0.03,4022_nse_dnn_0.03_elephant_10_n02504458_4401.JPEG
cornet-s,4,183,NaN,elephant,elephant,0.03,4023_nse_dnn_0.03_elephant_10_n02504013_21616.JPEG
cornet-s,4,184,NaN,elephant,elephant,0.03,4024_nse_dnn_0.03_elephant_10_n02504013_3173.JPEG
cornet-s,4,185,NaN,bear,elephant,0.03,4025_nse_dnn_0.03_elephant_10_n02504458_1933.JPEG
cornet-s,4,186,NaN,elephant,elephant,0.03,4026_nse_dnn_0.03_elephant_10_n02504458_458.JPEG
cornet-s,4,187,NaN,elephant,elephant,0.03,4027_nse_dnn_0.03_elephant_10_n02504458_5648.JPEG
cornet-s,4,188,NaN,elephant,elephant,0.03,4028_nse_dnn_0.03_elephant_10_n02504458_8151.JPEG
cornet-s,4,189,NaN,elephant,elephant,0.03,4029_nse_dnn_0.03_elephant_10_n02504458_3928.JPEG
cornet-s,4,190,NaN,elephant,elephant,0.03,4030_nse_dnn_0.03_elephant_10_n02504458_5778.JPEG
cornet-s,4,191,NaN,bicycle,bicycle,0.03,4031_nse_dnn_0.03_bicycle_10_n02835271_13256.JPEG
cornet-s,4,192,NaN,bicycle,bicycle,0.03,4032_nse_dnn_0.03_bicycle_10_n02835271_12405.JPEG
cornet-s,4,193,NaN,bicycle,bicycle,0.03,4033_nse_dnn_0.03_bicycle_10_n03792782_4864.JPEG
cornet-s,4,194,NaN,bicycle,bicycle,0.03,4034_nse_dnn_0.03_bicycle_10_n02835271_12385.JPEG
cornet-s,4,195,NaN,bicycle,bicycle,0.03,4035_nse_dnn_0.03_bicycle_10_n02835271_1141.JPEG
cornet-s,4,196,NaN,bicycle,bicycle,0.03,4036_nse_dnn_0.03_bicycle_10_n03792782_11995.JPEG
cornet-s,4,197,NaN,bicycle,bicycle,0.03,4037_nse_dnn_0.03_bicycle_10_n02835271_8832.JPEG
cornet-s,4,198,NaN,bicycle,bicycle,0.03,4038_nse_dnn_0.03_bicycle_10_n03792782_7212.JPEG
cornet-s,4,199,NaN,bicycle,bicycle,0.03,4039_nse_dnn_0.03_bicycle_10_n03792782_6102.JPEG
cornet-s,4,200,NaN,bicycle,bicycle,0.03,4040_nse_dnn_0.03_bicycle_10_n02835271_13498.JPEG
cornet-s,4,201,NaN,airplane,airplane,0.03,4041_nse_dnn_0.03_airplane_10_n02690373_2253.JPEG
cornet-s,4,202,NaN,airplane,airplane,0.03,4042_nse_dnn_0.03_airplane_10_n02690373_3988.JPEG
cornet-s,4,203,NaN,airplane,airplane,0.03,4043_nse_dnn_0.03_airplane_10_n02690373_3400.JPEG
cornet-s,4,204,NaN,airplane,airplane,0.03,4044_nse_dnn_0.03_airplane_10_n02690373_18304.JPEG
cornet-s,4,205,NaN,airplane,airplane,0.03,4045_nse_dnn_0.03_airplane_10_n02690373_8619.JPEG
cornet-s,4,206,NaN,airplane,airplane,0.03,4046_nse_dnn_0.03_airplane_10_n02690373_4188.JPEG
cornet-s,4,207,NaN,airplane,airplane,0.03,4047_nse_dnn_0.03_airplane_10_n02690373_8740.JPEG
cornet-s,4,208,NaN,airplane,airplane,0.03,4048_nse_dnn_0.03_airplane_10_n02690373_3753.JPEG
cornet-s,4,209,NaN,airplane,airplane,0.03,4049_nse_dnn_0.03_airplane_10_n02690373_9812.JPEG
cornet-s,4,210,NaN,airplane,airplane,0.03,4050_nse_dnn_0.03_airplane_10_n02690373_1094.JPEG
cornet-s,4,211,NaN,clock,clock,0.03,4051_nse_dnn_0.03_clock_10_n04548280_8668.JPEG
cornet-s,4,212,NaN,clock,clock,0.03,4052_nse_dnn_0.03_clock_10_n04548280_8357.JPEG
cornet-s,4,213,NaN,clock,clock,0.03,4053_nse_dnn_0.03_clock_10_n02708093_2025.JPEG
cornet-s,4,214,NaN,chair,clock,0.03,4054_nse_dnn_0.03_clock_10_n03196217_3109.JPEG
cornet-s,4,215,NaN,clock,clock,0.03,4055_nse_dnn_0.03_clock_10_n04548280_3644.JPEG
cornet-s,4,216,NaN,clock,clock,0.03,4056_nse_dnn_0.03_clock_10_n03196217_3104.JPEG
cornet-s,4,217,NaN,clock,clock,0.03,4057_nse_dnn_0.03_clock_10_n04548280_11806.JPEG
cornet-s,4,218,NaN,clock,clock,0.03,4058_nse_dnn_0.03_clock_10_n04548280_4758.JPEG
cornet-s,4,219,NaN,clock,clock,0.03,4059_nse_dnn_0.03_clock_10_n02708093_2020.JPEG
cornet-s,4,220,NaN,truck,clock,0.03,4060_nse_dnn_0.03_clock_10_n04548280_1.JPEG
cornet-s,4,221,NaN,knife,oven,0.03,4061_nse_dnn_0.03_oven_10_n04111531_14208.JPEG
cornet-s,4,222,NaN,chair,oven,0.03,4062_nse_dnn_0.03_oven_10_n04111531_22916.JPEG
cornet-s,4,223,NaN,chair,oven,0.03,4063_nse_dnn_0.03_oven_10_n04111531_7189.JPEG
cornet-s,4,224,NaN,knife,oven,0.03,4064_nse_dnn_0.03_oven_10_n04111531_1977.JPEG
cornet-s,4,225,NaN,chair,oven,0.03,4065_nse_dnn_0.03_oven_10_n04111531_1562.JPEG
cornet-s,4,226,NaN,oven,oven,0.03,4066_nse_dnn_0.03_oven_10_n04111531_5643.JPEG
cornet-s,4,227,NaN,cat,oven,0.03,4067_nse_dnn_0.03_oven_10_n04111531_8117.JPEG
cornet-s,4,228,NaN,truck,oven,0.03,4068_nse_dnn_0.03_oven_10_n04111531_7821.JPEG
cornet-s,4,229,NaN,chair,oven,0.03,4069_nse_dnn_0.03_oven_10_n04111531_3911.JPEG
cornet-s,4,230,NaN,truck,oven,0.03,4070_nse_dnn_0.03_oven_10_n04111531_6428.JPEG
cornet-s,4,231,NaN,clock,chair,0.03,4071_nse_dnn_0.03_chair_10_n04429376_2592.JPEG
cornet-s,4,232,NaN,chair,chair,0.03,4072_nse_dnn_0.03_chair_10_n03376595_6173.JPEG
cornet-s,4,233,NaN,chair,chair,0.03,4073_nse_dnn_0.03_chair_10_n04099969_1213.JPEG
cornet-s,4,234,NaN,clock,chair,0.03,4074_nse_dnn_0.03_chair_10_n04099969_8488.JPEG
cornet-s,4,235,NaN,chair,chair,0.03,4075_nse_dnn_0.03_chair_10_n02791124_9124.JPEG
cornet-s,4,236,NaN,chair,chair,0.03,4076_nse_dnn_0.03_chair_10_n04429376_15771.JPEG
cornet-s,4,237,NaN,chair,chair,0.03,4077_nse_dnn_0.03_chair_10_n04099969_19264.JPEG
cornet-s,4,238,NaN,chair,chair,0.03,4078_nse_dnn_0.03_chair_10_n03376595_4745.JPEG
cornet-s,4,239,NaN,chair,chair,0.03,4079_nse_dnn_0.03_chair_10_n04099969_43.JPEG
cornet-s,4,240,NaN,chair,chair,0.03,4080_nse_dnn_0.03_chair_10_n04099969_4609.JPEG
cornet-s,4,241,NaN,elephant,bear,0.03,4081_nse_dnn_0.03_bear_10_n02134418_5750.JPEG
cornet-s,4,242,NaN,bear,bear,0.03,4082_nse_dnn_0.03_bear_10_n02134084_647.JPEG
cornet-s,4,243,NaN,bear,bear,0.03,4083_nse_dnn_0.03_bear_10_n02134084_19849.JPEG
cornet-s,4,244,NaN,cat,bear,0.03,4084_nse_dnn_0.03_bear_10_n02133161_4883.JPEG
cornet-s,4,245,NaN,elephant,bear,0.03,4085_nse_dnn_0.03_bear_10_n02132136_9619.JPEG
cornet-s,4,246,NaN,chair,bear,0.03,4086_nse_dnn_0.03_bear_10_n02134418_1871.JPEG
cornet-s,4,247,NaN,elephant,bear,0.03,4087_nse_dnn_0.03_bear_10_n02132136_1620.JPEG
cornet-s,4,248,NaN,bear,bear,0.03,4088_nse_dnn_0.03_bear_10_n02132136_839.JPEG
cornet-s,4,249,NaN,bear,bear,0.03,4089_nse_dnn_0.03_bear_10_n02134418_529.JPEG
cornet-s,4,250,NaN,bear,bear,0.03,4090_nse_dnn_0.03_bear_10_n02134418_11554.JPEG
cornet-s,4,251,NaN,chair,boat,0.03,4091_nse_dnn_0.03_boat_10_n02951358_11189.JPEG
cornet-s,4,252,NaN,boat,boat,0.03,4092_nse_dnn_0.03_boat_10_n03344393_4096.JPEG
cornet-s,4,253,NaN,boat,boat,0.03,4093_nse_dnn_0.03_boat_10_n03344393_2946.JPEG
cornet-s,4,254,NaN,boat,boat,0.03,4094_nse_dnn_0.03_boat_10_n03344393_7773.JPEG
cornet-s,4,255,NaN,truck,boat,0.03,4095_nse_dnn_0.03_boat_10_n04273569_23162.JPEG
cornet-s,4,256,NaN,boat,boat,0.03,4096_nse_dnn_0.03_boat_10_n03344393_7826.JPEG
cornet-s,4,257,NaN,boat,boat,0.03,4097_nse_dnn_0.03_boat_10_n02951358_20813.JPEG
cornet-s,4,258,NaN,boat,boat,0.03,4098_nse_dnn_0.03_boat_10_n03344393_5265.JPEG
cornet-s,4,259,NaN,boat,boat,0.03,4099_nse_dnn_0.03_boat_10_n04612504_11939.JPEG
cornet-s,4,260,NaN,boat,boat,0.03,4100_nse_dnn_0.03_boat_10_n03344393_7748.JPEG
cornet-s,4,261,NaN,cat,cat,0.03,4101_nse_dnn_0.03_cat_10_n02123394_8318.JPEG
cornet-s,4,262,NaN,cat,cat,0.03,4102_nse_dnn_0.03_cat_10_n02123597_7121.JPEG
cornet-s,4,263,NaN,cat,cat,0.03,4103_nse_dnn_0.03_cat_10_n02123394_255.JPEG
cornet-s,4,264,NaN,bear,cat,0.03,4104_nse_dnn_0.03_cat_10_n02124075_12282.JPEG
cornet-s,4,265,NaN,cat,cat,0.03,4105_nse_dnn_0.03_cat_10_n02124075_12139.JPEG
cornet-s,4,266,NaN,cat,cat,0.03,4106_nse_dnn_0.03_cat_10_n02123159_4668.JPEG
cornet-s,4,267,NaN,dog,cat,0.03,4107_nse_dnn_0.03_cat_10_n02123597_2209.JPEG
cornet-s,4,268,NaN,cat,cat,0.03,4108_nse_dnn_0.03_cat_10_n02123597_7423.JPEG
cornet-s,4,269,NaN,cat,cat,0.03,4109_nse_dnn_0.03_cat_10_n02123159_7856.JPEG
cornet-s,4,270,NaN,elephant,cat,0.03,4110_nse_dnn_0.03_cat_10_n02123159_1011.JPEG
cornet-s,4,271,NaN,bottle,bottle,0.03,4111_nse_dnn_0.03_bottle_10_n02823428_1618.JPEG
cornet-s,4,272,NaN,bottle,bottle,0.03,4112_nse_dnn_0.03_bottle_10_n03937543_5324.JPEG
cornet-s,4,273,NaN,bottle,bottle,0.03,4113_nse_dnn_0.03_bottle_10_n03983396_4977.JPEG
cornet-s,4,274,NaN,chair,bottle,0.03,4114_nse_dnn_0.03_bottle_10_n04557648_3291.JPEG
cornet-s,4,275,NaN,bottle,bottle,0.03,4115_nse_dnn_0.03_bottle_10_n04579145_3540.JPEG
cornet-s,4,276,NaN,bottle,bottle,0.03,4116_nse_dnn_0.03_bottle_10_n04579145_7388.JPEG
cornet-s,4,277,NaN,bottle,bottle,0.03,4117_nse_dnn_0.03_bottle_10_n03983396_9413.JPEG
cornet-s,4,278,NaN,bottle,bottle,0.03,4118_nse_dnn_0.03_bottle_10_n02823428_1695.JPEG
cornet-s,4,279,NaN,bottle,bottle,0.03,4119_nse_dnn_0.03_bottle_10_n04560804_24278.JPEG
cornet-s,4,280,NaN,bottle,bottle,0.03,4120_nse_dnn_0.03_bottle_10_n04560804_692.JPEG
cornet-s,4,281,NaN,truck,truck,0.03,4121_nse_dnn_0.03_truck_10_n03417042_4542.JPEG
cornet-s,4,282,NaN,truck,truck,0.03,4122_nse_dnn_0.03_truck_10_n03417042_5331.JPEG
cornet-s,4,283,NaN,boat,truck,0.03,4123_nse_dnn_0.03_truck_10_n04467665_44850.JPEG
cornet-s,4,284,NaN,truck,truck,0.03,4124_nse_dnn_0.03_truck_10_n03796401_24365.JPEG
cornet-s,4,285,NaN,truck,truck,0.03,4125_nse_dnn_0.03_truck_10_n03417042_13871.JPEG
cornet-s,4,286,NaN,truck,truck,0.03,4126_nse_dnn_0.03_truck_10_n04467665_1174.JPEG
cornet-s,4,287,NaN,truck,truck,0.03,4127_nse_dnn_0.03_truck_10_n04467665_6365.JPEG
cornet-s,4,288,NaN,chair,truck,0.03,4128_nse_dnn_0.03_truck_10_n04467665_70584.JPEG
cornet-s,4,289,NaN,truck,truck,0.03,4129_nse_dnn_0.03_truck_10_n03417042_10677.JPEG
cornet-s,4,290,NaN,truck,truck,0.03,4130_nse_dnn_0.03_truck_10_n03417042_9121.JPEG
cornet-s,4,291,NaN,car,car,0.03,4131_nse_dnn_0.03_car_10_n03100240_4198.JPEG
cornet-s,4,292,NaN,truck,car,0.03,4132_nse_dnn_0.03_car_10_n03100240_1018.JPEG
cornet-s,4,293,NaN,truck,car,0.03,4133_nse_dnn_0.03_car_10_n04285008_536.JPEG
cornet-s,4,294,NaN,car,car,0.03,4134_nse_dnn_0.03_car_10_n04285008_11452.JPEG
cornet-s,4,295,NaN,truck,car,0.03,4135_nse_dnn_0.03_car_10_n03100240_151.JPEG
cornet-s,4,296,NaN,car,car,0.03,4136_nse_dnn_0.03_car_10_n03100240_5573.JPEG
cornet-s,4,297,NaN,airplane,car,0.03,4137_nse_dnn_0.03_car_10_n03100240_5456.JPEG
cornet-s,4,298,NaN,car,car,0.03,4138_nse_dnn_0.03_car_10_n04285008_7744.JPEG
cornet-s,4,299,NaN,truck,car,0.03,4139_nse_dnn_0.03_car_10_n03100240_2417.JPEG
cornet-s,4,300,NaN,car,car,0.03,4140_nse_dnn_0.03_car_10_n04285008_5321.JPEG
cornet-s,4,301,NaN,bird,bird,0.03,4141_nse_dnn_0.03_bird_10_n01843065_5497.JPEG
cornet-s,4,302,NaN,bird,bird,0.03,4142_nse_dnn_0.03_bird_10_n02002556_25393.JPEG
cornet-s,4,303,NaN,bird,bird,0.03,4143_nse_dnn_0.03_bird_10_n01833805_725.JPEG
cornet-s,4,304,NaN,bear,bird,0.03,4144_nse_dnn_0.03_bird_10_n01843065_2804.JPEG
cornet-s,4,305,NaN,bird,bird,0.03,4145_nse_dnn_0.03_bird_10_n02009912_15872.JPEG
cornet-s,4,306,NaN,bird,bird,0.03,4146_nse_dnn_0.03_bird_10_n01798484_13488.JPEG
cornet-s,4,307,NaN,bird,bird,0.03,4147_nse_dnn_0.03_bird_10_n02002556_9205.JPEG
cornet-s,4,308,NaN,bird,bird,0.03,4148_nse_dnn_0.03_bird_10_n01537544_2677.JPEG
cornet-s,4,309,NaN,boat,bird,0.03,4149_nse_dnn_0.03_bird_10_n01819313_4923.JPEG
cornet-s,4,310,NaN,elephant,bird,0.03,4150_nse_dnn_0.03_bird_10_n01601694_15376.JPEG
cornet-s,4,311,NaN,elephant,dog,0.03,4151_nse_dnn_0.03_dog_10_n02099849_8160.JPEG
cornet-s,4,312,NaN,dog,dog,0.03,4152_nse_dnn_0.03_dog_10_n02105855_2810.JPEG
cornet-s,4,313,NaN,cat,dog,0.03,4153_nse_dnn_0.03_dog_10_n02102318_9787.JPEG
cornet-s,4,314,NaN,bear,dog,0.03,4154_nse_dnn_0.03_dog_10_n02092002_1246.JPEG
cornet-s,4,315,NaN,dog,dog,0.03,4155_nse_dnn_0.03_dog_10_n02094258_1941.JPEG
cornet-s,4,316,NaN,dog,dog,0.03,4156_nse_dnn_0.03_dog_10_n02105505_7520.JPEG
cornet-s,4,317,NaN,dog,dog,0.03,4157_nse_dnn_0.03_dog_10_n02098105_10397.JPEG
cornet-s,4,318,NaN,cat,dog,0.03,4158_nse_dnn_0.03_dog_10_n02107908_9572.JPEG
cornet-s,4,319,NaN,elephant,dog,0.03,4159_nse_dnn_0.03_dog_10_n02099429_5345.JPEG
cornet-s,4,320,NaN,chair,dog,0.03,4160_nse_dnn_0.03_dog_10_n02108915_6008.JPEG
cornet-s,4,321,NaN,chair,knife,0.05,4161_nse_dnn_0.05_knife_10_n03041632_5427.JPEG
cornet-s,4,322,NaN,chair,knife,0.05,4162_nse_dnn_0.05_knife_10_n03041632_39739.JPEG
cornet-s,4,323,NaN,knife,knife,0.05,4163_nse_dnn_0.05_knife_10_n03041632_86251.JPEG
cornet-s,4,324,NaN,chair,knife,0.05,4164_nse_dnn_0.05_knife_10_n03041632_21590.JPEG
cornet-s,4,325,NaN,chair,knife,0.05,4165_nse_dnn_0.05_knife_10_n03041632_8528.JPEG
cornet-s,4,326,NaN,knife,knife,0.05,4166_nse_dnn_0.05_knife_10_n03041632_52040.JPEG
cornet-s,4,327,NaN,knife,knife,0.05,4167_nse_dnn_0.05_knife_10_n03041632_14774.JPEG
cornet-s,4,328,NaN,clock,knife,0.05,4168_nse_dnn_0.05_knife_10_n03041632_206.JPEG
cornet-s,4,329,NaN,chair,knife,0.05,4169_nse_dnn_0.05_knife_10_n03041632_32004.JPEG
cornet-s,4,330,NaN,chair,knife,0.05,4170_nse_dnn_0.05_knife_10_n03041632_98864.JPEG
cornet-s,4,331,NaN,keyboard,keyboard,0.05,4171_nse_dnn_0.05_keyboard_10_n03085013_23583.JPEG
cornet-s,4,332,NaN,keyboard,keyboard,0.05,4172_nse_dnn_0.05_keyboard_10_n04505470_4624.JPEG
cornet-s,4,333,NaN,keyboard,keyboard,0.05,4173_nse_dnn_0.05_keyboard_10_n04505470_848.JPEG
cornet-s,4,334,NaN,keyboard,keyboard,0.05,4174_nse_dnn_0.05_keyboard_10_n03085013_2122.JPEG
cornet-s,4,335,NaN,keyboard,keyboard,0.05,4175_nse_dnn_0.05_keyboard_10_n03085013_22016.JPEG
cornet-s,4,336,NaN,keyboard,keyboard,0.05,4176_nse_dnn_0.05_keyboard_10_n04505470_4539.JPEG
cornet-s,4,337,NaN,keyboard,keyboard,0.05,4177_nse_dnn_0.05_keyboard_10_n04505470_3566.JPEG
cornet-s,4,338,NaN,keyboard,keyboard,0.05,4178_nse_dnn_0.05_keyboard_10_n04505470_8620.JPEG
cornet-s,4,339,NaN,keyboard,keyboard,0.05,4179_nse_dnn_0.05_keyboard_10_n04505470_1691.JPEG
cornet-s,4,340,NaN,keyboard,keyboard,0.05,4180_nse_dnn_0.05_keyboard_10_n03085013_21115.JPEG
cornet-s,4,341,NaN,truck,elephant,0.05,4181_nse_dnn_0.05_elephant_10_n02504013_6549.JPEG
cornet-s,4,342,NaN,elephant,elephant,0.05,4182_nse_dnn_0.05_elephant_10_n02504458_7901.JPEG
cornet-s,4,343,NaN,elephant,elephant,0.05,4183_nse_dnn_0.05_elephant_10_n02504458_7565.JPEG
cornet-s,4,344,NaN,elephant,elephant,0.05,4184_nse_dnn_0.05_elephant_10_n02504013_13427.JPEG
cornet-s,4,345,NaN,chair,elephant,0.05,4185_nse_dnn_0.05_elephant_10_n02504458_6033.JPEG
cornet-s,4,346,NaN,elephant,elephant,0.05,4186_nse_dnn_0.05_elephant_10_n02504013_14918.JPEG
cornet-s,4,347,NaN,elephant,elephant,0.05,4187_nse_dnn_0.05_elephant_10_n02504013_4339.JPEG
cornet-s,4,348,NaN,elephant,elephant,0.05,4188_nse_dnn_0.05_elephant_10_n02504013_15805.JPEG
cornet-s,4,349,NaN,elephant,elephant,0.05,4189_nse_dnn_0.05_elephant_10_n02504013_9130.JPEG
cornet-s,4,350,NaN,elephant,elephant,0.05,4190_nse_dnn_0.05_elephant_10_n02504013_7143.JPEG
cornet-s,4,351,NaN,boat,bicycle,0.05,4191_nse_dnn_0.05_bicycle_10_n03792782_607.JPEG
cornet-s,4,352,NaN,bicycle,bicycle,0.05,4192_nse_dnn_0.05_bicycle_10_n02835271_11884.JPEG
cornet-s,4,353,NaN,bicycle,bicycle,0.05,4193_nse_dnn_0.05_bicycle_10_n02835271_7813.JPEG
cornet-s,4,354,NaN,bicycle,bicycle,0.05,4194_nse_dnn_0.05_bicycle_10_n03792782_10395.JPEG
cornet-s,4,355,NaN,bicycle,bicycle,0.05,4195_nse_dnn_0.05_bicycle_10_n03792782_11609.JPEG
cornet-s,4,356,NaN,bicycle,bicycle,0.05,4196_nse_dnn_0.05_bicycle_10_n03792782_8143.JPEG
cornet-s,4,357,NaN,bicycle,bicycle,0.05,4197_nse_dnn_0.05_bicycle_10_n03792782_18343.JPEG
cornet-s,4,358,NaN,bicycle,bicycle,0.05,4198_nse_dnn_0.05_bicycle_10_n02835271_419.JPEG
cornet-s,4,359,NaN,boat,bicycle,0.05,4199_nse_dnn_0.05_bicycle_10_n02835271_6278.JPEG
cornet-s,4,360,NaN,bicycle,bicycle,0.05,4200_nse_dnn_0.05_bicycle_10_n02835271_9669.JPEG
cornet-s,4,361,NaN,airplane,airplane,0.05,4201_nse_dnn_0.05_airplane_10_n02690373_764.JPEG
cornet-s,4,362,NaN,boat,airplane,0.05,4202_nse_dnn_0.05_airplane_10_n02690373_4410.JPEG
cornet-s,4,363,NaN,airplane,airplane,0.05,4203_nse_dnn_0.05_airplane_10_n02690373_6332.JPEG
cornet-s,4,364,NaN,airplane,airplane,0.05,4204_nse_dnn_0.05_airplane_10_n02690373_8804.JPEG
cornet-s,4,365,NaN,airplane,airplane,0.05,4205_nse_dnn_0.05_airplane_10_n02690373_763.JPEG
cornet-s,4,366,NaN,airplane,airplane,0.05,4206_nse_dnn_0.05_airplane_10_n02690373_4107.JPEG
cornet-s,4,367,NaN,airplane,airplane,0.05,4207_nse_dnn_0.05_airplane_10_n02690373_5838.JPEG
cornet-s,4,368,NaN,airplane,airplane,0.05,4208_nse_dnn_0.05_airplane_10_n02690373_9959.JPEG
cornet-s,4,369,NaN,airplane,airplane,0.05,4209_nse_dnn_0.05_airplane_10_n02690373_4282.JPEG
cornet-s,4,370,NaN,airplane,airplane,0.05,4210_nse_dnn_0.05_airplane_10_n02690373_5422.JPEG
cornet-s,4,371,NaN,clock,clock,0.05,4211_nse_dnn_0.05_clock_10_n04548280_6388.JPEG
cornet-s,4,372,NaN,clock,clock,0.05,4212_nse_dnn_0.05_clock_10_n03196217_9069.JPEG
cornet-s,4,373,NaN,clock,clock,0.05,4213_nse_dnn_0.05_clock_10_n04548280_77.JPEG
cornet-s,4,374,NaN,clock,clock,0.05,4214_nse_dnn_0.05_clock_10_n03196217_1404.JPEG
cornet-s,4,375,NaN,clock,clock,0.05,4215_nse_dnn_0.05_clock_10_n04548280_4839.JPEG
cornet-s,4,376,NaN,clock,clock,0.05,4216_nse_dnn_0.05_clock_10_n02708093_2622.JPEG
cornet-s,4,377,NaN,clock,clock,0.05,4217_nse_dnn_0.05_clock_10_n04548280_4248.JPEG
cornet-s,4,378,NaN,clock,clock,0.05,4218_nse_dnn_0.05_clock_10_n04548280_494.JPEG
cornet-s,4,379,NaN,clock,clock,0.05,4219_nse_dnn_0.05_clock_10_n03196217_2009.JPEG
cornet-s,4,380,NaN,clock,clock,0.05,4220_nse_dnn_0.05_clock_10_n03196217_9343.JPEG
cornet-s,4,381,NaN,oven,oven,0.05,4221_nse_dnn_0.05_oven_10_n04111531_4951.JPEG
cornet-s,4,382,NaN,oven,oven,0.05,4222_nse_dnn_0.05_oven_10_n04111531_458.JPEG
cornet-s,4,383,NaN,elephant,oven,0.05,4223_nse_dnn_0.05_oven_10_n04111531_10220.JPEG
cornet-s,4,384,NaN,knife,oven,0.05,4224_nse_dnn_0.05_oven_10_n04111531_15582.JPEG
cornet-s,4,385,NaN,oven,oven,0.05,4225_nse_dnn_0.05_oven_10_n04111531_13101.JPEG
cornet-s,4,386,NaN,elephant,oven,0.05,4226_nse_dnn_0.05_oven_10_n04111531_6084.JPEG
cornet-s,4,387,NaN,bottle,oven,0.05,4227_nse_dnn_0.05_oven_10_n04111531_14913.JPEG
cornet-s,4,388,NaN,oven,oven,0.05,4228_nse_dnn_0.05_oven_10_n04111531_5126.JPEG
cornet-s,4,389,NaN,chair,oven,0.05,4229_nse_dnn_0.05_oven_10_n04111531_1330.JPEG
cornet-s,4,390,NaN,oven,oven,0.05,4230_nse_dnn_0.05_oven_10_n04111531_2433.JPEG
cornet-s,4,391,NaN,chair,chair,0.05,4231_nse_dnn_0.05_chair_10_n03376595_9753.JPEG
cornet-s,4,392,NaN,chair,chair,0.05,4232_nse_dnn_0.05_chair_10_n02791124_15902.JPEG
cornet-s,4,393,NaN,chair,chair,0.05,4233_nse_dnn_0.05_chair_10_n04099969_15848.JPEG
cornet-s,4,394,NaN,chair,chair,0.05,4234_nse_dnn_0.05_chair_10_n04099969_22201.JPEG
cornet-s,4,395,NaN,chair,chair,0.05,4235_nse_dnn_0.05_chair_10_n03376595_2345.JPEG
cornet-s,4,396,NaN,bicycle,chair,0.05,4236_nse_dnn_0.05_chair_10_n02791124_4172.JPEG
cornet-s,4,397,NaN,chair,chair,0.05,4237_nse_dnn_0.05_chair_10_n04429376_8224.JPEG
cornet-s,4,398,NaN,chair,chair,0.05,4238_nse_dnn_0.05_chair_10_n02791124_1291.JPEG
cornet-s,4,399,NaN,chair,chair,0.05,4239_nse_dnn_0.05_chair_10_n03376595_2931.JPEG
cornet-s,4,400,NaN,chair,chair,0.05,4240_nse_dnn_0.05_chair_10_n04429376_55163.JPEG
cornet-s,4,401,NaN,bear,bear,0.05,4241_nse_dnn_0.05_bear_10_n02134418_223.JPEG
cornet-s,4,402,NaN,bicycle,bear,0.05,4242_nse_dnn_0.05_bear_10_n02134418_5491.JPEG
cornet-s,4,403,NaN,bear,bear,0.05,4243_nse_dnn_0.05_bear_10_n02134084_33007.JPEG
cornet-s,4,404,NaN,bear,bear,0.05,4244_nse_dnn_0.05_bear_10_n02134084_6817.JPEG
cornet-s,4,405,NaN,bicycle,bear,0.05,4245_nse_dnn_0.05_bear_10_n02133161_3580.JPEG
cornet-s,4,406,NaN,chair,bear,0.05,4246_nse_dnn_0.05_bear_10_n02134418_5120.JPEG
cornet-s,4,407,NaN,boat,bear,0.05,4247_nse_dnn_0.05_bear_10_n02133161_8856.JPEG
cornet-s,4,408,NaN,elephant,bear,0.05,4248_nse_dnn_0.05_bear_10_n02133161_1707.JPEG
cornet-s,4,409,NaN,bear,bear,0.05,4249_nse_dnn_0.05_bear_10_n02133161_3527.JPEG
cornet-s,4,410,NaN,bear,bear,0.05,4250_nse_dnn_0.05_bear_10_n02133161_2175.JPEG
cornet-s,4,411,NaN,boat,boat,0.05,4251_nse_dnn_0.05_boat_10_n02951358_31813.JPEG
cornet-s,4,412,NaN,boat,boat,0.05,4252_nse_dnn_0.05_boat_10_n02951358_31470.JPEG
cornet-s,4,413,NaN,boat,boat,0.05,4253_nse_dnn_0.05_boat_10_n03344393_2412.JPEG
cornet-s,4,414,NaN,boat,boat,0.05,4254_nse_dnn_0.05_boat_10_n02951358_11706.JPEG
cornet-s,4,415,NaN,boat,boat,0.05,4255_nse_dnn_0.05_boat_10_n03344393_7921.JPEG
cornet-s,4,416,NaN,boat,boat,0.05,4256_nse_dnn_0.05_boat_10_n02951358_14366.JPEG
cornet-s,4,417,NaN,boat,boat,0.05,4257_nse_dnn_0.05_boat_10_n02951358_12433.JPEG
cornet-s,4,418,NaN,boat,boat,0.05,4258_nse_dnn_0.05_boat_10_n02951358_14816.JPEG
cornet-s,4,419,NaN,boat,boat,0.05,4259_nse_dnn_0.05_boat_10_n02951358_8840.JPEG
cornet-s,4,420,NaN,car,boat,0.05,4260_nse_dnn_0.05_boat_10_n02951358_17438.JPEG
cornet-s,4,421,NaN,cat,cat,0.05,4261_nse_dnn_0.05_cat_10_n02125311_34814.JPEG
cornet-s,4,422,NaN,cat,cat,0.05,4262_nse_dnn_0.05_cat_10_n02125311_16701.JPEG
cornet-s,4,423,NaN,cat,cat,0.05,4263_nse_dnn_0.05_cat_10_n02123159_6064.JPEG
cornet-s,4,424,NaN,cat,cat,0.05,4264_nse_dnn_0.05_cat_10_n02123159_5652.JPEG
cornet-s,4,425,NaN,cat,cat,0.05,4265_nse_dnn_0.05_cat_10_n02123394_3100.JPEG
cornet-s,4,426,NaN,cat,cat,0.05,4266_nse_dnn_0.05_cat_10_n02125311_12734.JPEG
cornet-s,4,427,NaN,chair,cat,0.05,4267_nse_dnn_0.05_cat_10_n02123159_474.JPEG
cornet-s,4,428,NaN,bottle,cat,0.05,4268_nse_dnn_0.05_cat_10_n02123597_13994.JPEG
cornet-s,4,429,NaN,cat,cat,0.05,4269_nse_dnn_0.05_cat_10_n02123159_14972.JPEG
cornet-s,4,430,NaN,cat,cat,0.05,4270_nse_dnn_0.05_cat_10_n02123159_1879.JPEG
cornet-s,4,431,NaN,chair,bottle,0.05,4271_nse_dnn_0.05_bottle_10_n04557648_3385.JPEG
cornet-s,4,432,NaN,bottle,bottle,0.05,4272_nse_dnn_0.05_bottle_10_n03983396_14652.JPEG
cornet-s,4,433,NaN,bottle,bottle,0.05,4273_nse_dnn_0.05_bottle_10_n04557648_15027.JPEG
cornet-s,4,434,NaN,bottle,bottle,0.05,4274_nse_dnn_0.05_bottle_10_n04579145_984.JPEG
cornet-s,4,435,NaN,bicycle,bottle,0.05,4275_nse_dnn_0.05_bottle_10_n03983396_2883.JPEG
cornet-s,4,436,NaN,elephant,bottle,0.05,4276_nse_dnn_0.05_bottle_10_n04557648_9744.JPEG
cornet-s,4,437,NaN,chair,bottle,0.05,4277_nse_dnn_0.05_bottle_10_n04591713_3839.JPEG
cornet-s,4,438,NaN,bottle,bottle,0.05,4278_nse_dnn_0.05_bottle_10_n04557648_7809.JPEG
cornet-s,4,439,NaN,clock,bottle,0.05,4279_nse_dnn_0.05_bottle_10_n03983396_845.JPEG
cornet-s,4,440,NaN,bottle,bottle,0.05,4280_nse_dnn_0.05_bottle_10_n04579145_2507.JPEG
cornet-s,4,441,NaN,truck,truck,0.05,4281_nse_dnn_0.05_truck_10_n03417042_12790.JPEG
cornet-s,4,442,NaN,truck,truck,0.05,4282_nse_dnn_0.05_truck_10_n03796401_6142.JPEG
cornet-s,4,443,NaN,truck,truck,0.05,4283_nse_dnn_0.05_truck_10_n03796401_9601.JPEG
cornet-s,4,444,NaN,chair,truck,0.05,4284_nse_dnn_0.05_truck_10_n03796401_6644.JPEG
cornet-s,4,445,NaN,truck,truck,0.05,4285_nse_dnn_0.05_truck_10_n03796401_8254.JPEG
cornet-s,4,446,NaN,truck,truck,0.05,4286_nse_dnn_0.05_truck_10_n03417042_15198.JPEG
cornet-s,4,447,NaN,truck,truck,0.05,4287_nse_dnn_0.05_truck_10_n03417042_6034.JPEG
cornet-s,4,448,NaN,truck,truck,0.05,4288_nse_dnn_0.05_truck_10_n04467665_67057.JPEG
cornet-s,4,449,NaN,truck,truck,0.05,4289_nse_dnn_0.05_truck_10_n04467665_22573.JPEG
cornet-s,4,450,NaN,truck,truck,0.05,4290_nse_dnn_0.05_truck_10_n03417042_10283.JPEG
cornet-s,4,451,NaN,truck,car,0.05,4291_nse_dnn_0.05_car_10_n03100240_8351.JPEG
cornet-s,4,452,NaN,car,car,0.05,4292_nse_dnn_0.05_car_10_n02814533_98174.JPEG
cornet-s,4,453,NaN,clock,car,0.05,4293_nse_dnn_0.05_car_10_n03100240_5291.JPEG
cornet-s,4,454,NaN,truck,car,0.05,4294_nse_dnn_0.05_car_10_n02814533_89061.JPEG
cornet-s,4,455,NaN,truck,car,0.05,4295_nse_dnn_0.05_car_10_n02814533_19312.JPEG
cornet-s,4,456,NaN,car,car,0.05,4296_nse_dnn_0.05_car_10_n03100240_12605.JPEG
cornet-s,4,457,NaN,truck,car,0.05,4297_nse_dnn_0.05_car_10_n04285008_12289.JPEG
cornet-s,4,458,NaN,car,car,0.05,4298_nse_dnn_0.05_car_10_n02814533_62199.JPEG
cornet-s,4,459,NaN,truck,car,0.05,4299_nse_dnn_0.05_car_10_n04285008_7870.JPEG
cornet-s,4,460,NaN,car,car,0.05,4300_nse_dnn_0.05_car_10_n03100240_16739.JPEG
cornet-s,4,461,NaN,clock,bird,0.05,4301_nse_dnn_0.05_bird_10_n01820546_3594.JPEG
cornet-s,4,462,NaN,chair,bird,0.05,4302_nse_dnn_0.05_bird_10_n01843383_7044.JPEG
cornet-s,4,463,NaN,bird,bird,0.05,4303_nse_dnn_0.05_bird_10_n01855672_4396.JPEG
cornet-s,4,464,NaN,knife,bird,0.05,4304_nse_dnn_0.05_bird_10_n02011460_3761.JPEG
cornet-s,4,465,NaN,boat,bird,0.05,4305_nse_dnn_0.05_bird_10_n01833805_9948.JPEG
cornet-s,4,466,NaN,elephant,bird,0.05,4306_nse_dnn_0.05_bird_10_n02011460_2497.JPEG
cornet-s,4,467,NaN,bicycle,bird,0.05,4307_nse_dnn_0.05_bird_10_n01616318_3613.JPEG
cornet-s,4,468,NaN,bird,bird,0.05,4308_nse_dnn_0.05_bird_10_n01795545_5946.JPEG
cornet-s,4,469,NaN,boat,bird,0.05,4309_nse_dnn_0.05_bird_10_n01819313_34.JPEG
cornet-s,4,470,NaN,boat,bird,0.05,4310_nse_dnn_0.05_bird_10_n01531178_6516.JPEG
cornet-s,4,471,NaN,elephant,dog,0.05,4311_nse_dnn_0.05_dog_10_n02088632_747.JPEG
cornet-s,4,472,NaN,bear,dog,0.05,4312_nse_dnn_0.05_dog_10_n02113799_8691.JPEG
cornet-s,4,473,NaN,cat,dog,0.05,4313_nse_dnn_0.05_dog_10_n02112706_5025.JPEG
cornet-s,4,474,NaN,dog,dog,0.05,4314_nse_dnn_0.05_dog_10_n02092002_6827.JPEG
cornet-s,4,475,NaN,truck,dog,0.05,4315_nse_dnn_0.05_dog_10_n02113624_3574.JPEG
cornet-s,4,476,NaN,bear,dog,0.05,4316_nse_dnn_0.05_dog_10_n02106166_57.JPEG
cornet-s,4,477,NaN,bicycle,dog,0.05,4317_nse_dnn_0.05_dog_10_n02088094_5437.JPEG
cornet-s,4,478,NaN,chair,dog,0.05,4318_nse_dnn_0.05_dog_10_n02109525_5700.JPEG
cornet-s,4,479,NaN,cat,dog,0.05,4319_nse_dnn_0.05_dog_10_n02111129_2363.JPEG
cornet-s,4,480,NaN,elephant,dog,0.05,4320_nse_dnn_0.05_dog_10_n02113712_19820.JPEG
cornet-s,4,481,NaN,bicycle,knife,0.10,4321_nse_dnn_0.10_knife_10_n03041632_4590.JPEG
cornet-s,4,482,NaN,clock,knife,0.10,4322_nse_dnn_0.10_knife_10_n03041632_24100.JPEG
cornet-s,4,483,NaN,chair,knife,0.10,4323_nse_dnn_0.10_knife_10_n03041632_29886.JPEG
cornet-s,4,484,NaN,chair,knife,0.10,4324_nse_dnn_0.10_knife_10_n03041632_3063.JPEG
cornet-s,4,485,NaN,boat,knife,0.10,4325_nse_dnn_0.10_knife_10_n03041632_39836.JPEG
cornet-s,4,486,NaN,clock,knife,0.10,4326_nse_dnn_0.10_knife_10_n03041632_4787.JPEG
cornet-s,4,487,NaN,cat,knife,0.10,4327_nse_dnn_0.10_knife_10_n03041632_2319.JPEG
cornet-s,4,488,NaN,clock,knife,0.10,4328_nse_dnn_0.10_knife_10_n03041632_7448.JPEG
cornet-s,4,489,NaN,knife,knife,0.10,4329_nse_dnn_0.10_knife_10_n03041632_40887.JPEG
cornet-s,4,490,NaN,chair,knife,0.10,4330_nse_dnn_0.10_knife_10_n03041632_35260.JPEG
cornet-s,4,491,NaN,boat,keyboard,0.10,4331_nse_dnn_0.10_keyboard_10_n04505470_709.JPEG
cornet-s,4,492,NaN,chair,keyboard,0.10,4332_nse_dnn_0.10_keyboard_10_n03085013_24363.JPEG
cornet-s,4,493,NaN,keyboard,keyboard,0.10,4333_nse_dnn_0.10_keyboard_10_n03085013_24206.JPEG
cornet-s,4,494,NaN,keyboard,keyboard,0.10,4334_nse_dnn_0.10_keyboard_10_n04505470_10023.JPEG
cornet-s,4,495,NaN,boat,keyboard,0.10,4335_nse_dnn_0.10_keyboard_10_n04505470_4723.JPEG
cornet-s,4,496,NaN,clock,keyboard,0.10,4336_nse_dnn_0.10_keyboard_10_n04505470_4748.JPEG
cornet-s,4,497,NaN,chair,keyboard,0.10,4337_nse_dnn_0.10_keyboard_10_n04505470_4528.JPEG
cornet-s,4,498,NaN,chair,keyboard,0.10,4338_nse_dnn_0.10_keyboard_10_n03085013_6828.JPEG
cornet-s,4,499,NaN,chair,keyboard,0.10,4339_nse_dnn_0.10_keyboard_10_n03085013_20881.JPEG
cornet-s,4,500,NaN,knife,keyboard,0.10,4340_nse_dnn_0.10_keyboard_10_n03085013_24360.JPEG
cornet-s,4,501,NaN,boat,elephant,0.10,4341_nse_dnn_0.10_elephant_10_n02504458_3491.JPEG
cornet-s,4,502,NaN,chair,elephant,0.10,4342_nse_dnn_0.10_elephant_10_n02504458_8226.JPEG
cornet-s,4,503,NaN,truck,elephant,0.10,4343_nse_dnn_0.10_elephant_10_n02504013_2052.JPEG
cornet-s,4,504,NaN,bear,elephant,0.10,4344_nse_dnn_0.10_elephant_10_n02504013_4762.JPEG
cornet-s,4,505,NaN,bear,elephant,0.10,4345_nse_dnn_0.10_elephant_10_n02504013_7210.JPEG
cornet-s,4,506,NaN,elephant,elephant,0.10,4346_nse_dnn_0.10_elephant_10_n02504458_1092.JPEG
cornet-s,4,507,NaN,chair,elephant,0.10,4347_nse_dnn_0.10_elephant_10_n02504458_4345.JPEG
cornet-s,4,508,NaN,chair,elephant,0.10,4348_nse_dnn_0.10_elephant_10_n02504458_1473.JPEG
cornet-s,4,509,NaN,bear,elephant,0.10,4349_nse_dnn_0.10_elephant_10_n02504013_7368.JPEG
cornet-s,4,510,NaN,elephant,elephant,0.10,4350_nse_dnn_0.10_elephant_10_n02504458_4864.JPEG
cornet-s,4,511,NaN,elephant,bicycle,0.10,4351_nse_dnn_0.10_bicycle_10_n02835271_9416.JPEG
cornet-s,4,512,NaN,bicycle,bicycle,0.10,4352_nse_dnn_0.10_bicycle_10_n02835271_25718.JPEG
cornet-s,4,513,NaN,bicycle,bicycle,0.10,4353_nse_dnn_0.10_bicycle_10_n03792782_12578.JPEG
cornet-s,4,514,NaN,knife,bicycle,0.10,4354_nse_dnn_0.10_bicycle_10_n03792782_2701.JPEG
cornet-s,4,515,NaN,bicycle,bicycle,0.10,4355_nse_dnn_0.10_bicycle_10_n03792782_41097.JPEG
cornet-s,4,516,NaN,bottle,bicycle,0.10,4356_nse_dnn_0.10_bicycle_10_n03792782_7008.JPEG
cornet-s,4,517,NaN,bicycle,bicycle,0.10,4357_nse_dnn_0.10_bicycle_10_n02835271_6266.JPEG
cornet-s,4,518,NaN,clock,bicycle,0.10,4358_nse_dnn_0.10_bicycle_10_n03792782_1831.JPEG
cornet-s,4,519,NaN,clock,bicycle,0.10,4359_nse_dnn_0.10_bicycle_10_n03792782_14476.JPEG
cornet-s,4,520,NaN,bicycle,bicycle,0.10,4360_nse_dnn_0.10_bicycle_10_n03792782_23334.JPEG
cornet-s,4,521,NaN,boat,airplane,0.10,4361_nse_dnn_0.10_airplane_10_n02690373_1589.JPEG
cornet-s,4,522,NaN,airplane,airplane,0.10,4362_nse_dnn_0.10_airplane_10_n02690373_6682.JPEG
cornet-s,4,523,NaN,boat,airplane,0.10,4363_nse_dnn_0.10_airplane_10_n02690373_6210.JPEG
cornet-s,4,524,NaN,boat,airplane,0.10,4364_nse_dnn_0.10_airplane_10_n02690373_610.JPEG
cornet-s,4,525,NaN,boat,airplane,0.10,4365_nse_dnn_0.10_airplane_10_n02690373_6336.JPEG
cornet-s,4,526,NaN,boat,airplane,0.10,4366_nse_dnn_0.10_airplane_10_n02690373_7748.JPEG
cornet-s,4,527,NaN,airplane,airplane,0.10,4367_nse_dnn_0.10_airplane_10_n02690373_10001.JPEG
cornet-s,4,528,NaN,airplane,airplane,0.10,4368_nse_dnn_0.10_airplane_10_n02690373_4649.JPEG
cornet-s,4,529,NaN,boat,airplane,0.10,4369_nse_dnn_0.10_airplane_10_n02690373_19666.JPEG
cornet-s,4,530,NaN,chair,airplane,0.10,4370_nse_dnn_0.10_airplane_10_n02690373_4671.JPEG
cornet-s,4,531,NaN,clock,clock,0.10,4371_nse_dnn_0.10_clock_10_n03196217_559.JPEG
cornet-s,4,532,NaN,clock,clock,0.10,4372_nse_dnn_0.10_clock_10_n04548280_3352.JPEG
cornet-s,4,533,NaN,clock,clock,0.10,4373_nse_dnn_0.10_clock_10_n04548280_702.JPEG
cornet-s,4,534,NaN,clock,clock,0.10,4374_nse_dnn_0.10_clock_10_n02708093_320.JPEG
cornet-s,4,535,NaN,clock,clock,0.10,4375_nse_dnn_0.10_clock_10_n04548280_132.JPEG
cornet-s,4,536,NaN,clock,clock,0.10,4376_nse_dnn_0.10_clock_10_n04548280_7951.JPEG
cornet-s,4,537,NaN,clock,clock,0.10,4377_nse_dnn_0.10_clock_10_n04548280_11763.JPEG
cornet-s,4,538,NaN,clock,clock,0.10,4378_nse_dnn_0.10_clock_10_n04548280_8649.JPEG
cornet-s,4,539,NaN,clock,clock,0.10,4379_nse_dnn_0.10_clock_10_n03196217_10424.JPEG
cornet-s,4,540,NaN,clock,clock,0.10,4380_nse_dnn_0.10_clock_10_n02708093_464.JPEG
cornet-s,4,541,NaN,knife,oven,0.10,4381_nse_dnn_0.10_oven_10_n04111531_6958.JPEG
cornet-s,4,542,NaN,boat,oven,0.10,4382_nse_dnn_0.10_oven_10_n04111531_12161.JPEG
cornet-s,4,543,NaN,clock,oven,0.10,4383_nse_dnn_0.10_oven_10_n04111531_8793.JPEG
cornet-s,4,544,NaN,chair,oven,0.10,4384_nse_dnn_0.10_oven_10_n04111531_1770.JPEG
cornet-s,4,545,NaN,boat,oven,0.10,4385_nse_dnn_0.10_oven_10_n04111531_505.JPEG
cornet-s,4,546,NaN,knife,oven,0.10,4386_nse_dnn_0.10_oven_10_n04111531_10436.JPEG
cornet-s,4,547,NaN,cat,oven,0.10,4387_nse_dnn_0.10_oven_10_n04111531_1054.JPEG
cornet-s,4,548,NaN,chair,oven,0.10,4388_nse_dnn_0.10_oven_10_n04111531_23264.JPEG
cornet-s,4,549,NaN,clock,oven,0.10,4389_nse_dnn_0.10_oven_10_n04111531_13479.JPEG
cornet-s,4,550,NaN,chair,oven,0.10,4390_nse_dnn_0.10_oven_10_n04111531_6400.JPEG
cornet-s,4,551,NaN,chair,chair,0.10,4391_nse_dnn_0.10_chair_10_n02791124_14039.JPEG
cornet-s,4,552,NaN,truck,chair,0.10,4392_nse_dnn_0.10_chair_10_n02791124_381.JPEG
cornet-s,4,553,NaN,chair,chair,0.10,4393_nse_dnn_0.10_chair_10_n03376595_3279.JPEG
cornet-s,4,554,NaN,clock,chair,0.10,4394_nse_dnn_0.10_chair_10_n04429376_9039.JPEG
cornet-s,4,555,NaN,chair,chair,0.10,4395_nse_dnn_0.10_chair_10_n04099969_35740.JPEG
cornet-s,4,556,NaN,chair,chair,0.10,4396_nse_dnn_0.10_chair_10_n03376595_4248.JPEG
cornet-s,4,557,NaN,chair,chair,0.10,4397_nse_dnn_0.10_chair_10_n02791124_6865.JPEG
cornet-s,4,558,NaN,bicycle,chair,0.10,4398_nse_dnn_0.10_chair_10_n03376595_8702.JPEG
cornet-s,4,559,NaN,knife,chair,0.10,4399_nse_dnn_0.10_chair_10_n04429376_18664.JPEG
cornet-s,4,560,NaN,chair,chair,0.10,4400_nse_dnn_0.10_chair_10_n04099969_5740.JPEG
cornet-s,4,561,NaN,bicycle,bear,0.10,4401_nse_dnn_0.10_bear_10_n02133161_6322.JPEG
cornet-s,4,562,NaN,knife,bear,0.10,4402_nse_dnn_0.10_bear_10_n02134084_6807.JPEG
cornet-s,4,563,NaN,chair,bear,0.10,4403_nse_dnn_0.10_bear_10_n02133161_12868.JPEG
cornet-s,4,564,NaN,chair,bear,0.10,4404_nse_dnn_0.10_bear_10_n02134418_3512.JPEG
cornet-s,4,565,NaN,bear,bear,0.10,4405_nse_dnn_0.10_bear_10_n02134084_9659.JPEG
cornet-s,4,566,NaN,chair,bear,0.10,4406_nse_dnn_0.10_bear_10_n02133161_11796.JPEG
cornet-s,4,567,NaN,chair,bear,0.10,4407_nse_dnn_0.10_bear_10_n02134418_2545.JPEG
cornet-s,4,568,NaN,cat,bear,0.10,4408_nse_dnn_0.10_bear_10_n02133161_10715.JPEG
cornet-s,4,569,NaN,boat,bear,0.10,4409_nse_dnn_0.10_bear_10_n02133161_3622.JPEG
cornet-s,4,570,NaN,bear,bear,0.10,4410_nse_dnn_0.10_bear_10_n02134084_1689.JPEG
cornet-s,4,571,NaN,boat,boat,0.10,4411_nse_dnn_0.10_boat_10_n02951358_2776.JPEG
cornet-s,4,572,NaN,boat,boat,0.10,4412_nse_dnn_0.10_boat_10_n04612504_1224.JPEG
cornet-s,4,573,NaN,clock,boat,0.10,4413_nse_dnn_0.10_boat_10_n04612504_9360.JPEG
cornet-s,4,574,NaN,boat,boat,0.10,4414_nse_dnn_0.10_boat_10_n03662601_21412.JPEG
cornet-s,4,575,NaN,chair,boat,0.10,4415_nse_dnn_0.10_boat_10_n03662601_7270.JPEG
cornet-s,4,576,NaN,clock,boat,0.10,4416_nse_dnn_0.10_boat_10_n03344393_5833.JPEG
cornet-s,4,577,NaN,chair,boat,0.10,4417_nse_dnn_0.10_boat_10_n03662601_5160.JPEG
cornet-s,4,578,NaN,boat,boat,0.10,4418_nse_dnn_0.10_boat_10_n03344393_402.JPEG
cornet-s,4,579,NaN,boat,boat,0.10,4419_nse_dnn_0.10_boat_10_n04612504_34200.JPEG
cornet-s,4,580,NaN,bicycle,boat,0.10,4420_nse_dnn_0.10_boat_10_n03662601_9602.JPEG
cornet-s,4,581,NaN,chair,cat,0.10,4421_nse_dnn_0.10_cat_10_n02123159_6846.JPEG
cornet-s,4,582,NaN,chair,cat,0.10,4422_nse_dnn_0.10_cat_10_n02123159_2888.JPEG
cornet-s,4,583,NaN,chair,cat,0.10,4423_nse_dnn_0.10_cat_10_n02123045_8579.JPEG
cornet-s,4,584,NaN,cat,cat,0.10,4424_nse_dnn_0.10_cat_10_n02125311_7988.JPEG
cornet-s,4,585,NaN,chair,cat,0.10,4425_nse_dnn_0.10_cat_10_n02123045_2777.JPEG
cornet-s,4,586,NaN,chair,cat,0.10,4426_nse_dnn_0.10_cat_10_n02123597_4459.JPEG
cornet-s,4,587,NaN,cat,cat,0.10,4427_nse_dnn_0.10_cat_10_n02123045_4314.JPEG
cornet-s,4,588,NaN,cat,cat,0.10,4428_nse_dnn_0.10_cat_10_n02125311_44119.JPEG
cornet-s,4,589,NaN,knife,cat,0.10,4429_nse_dnn_0.10_cat_10_n02124075_6093.JPEG
cornet-s,4,590,NaN,cat,cat,0.10,4430_nse_dnn_0.10_cat_10_n02124075_2643.JPEG
cornet-s,4,591,NaN,bicycle,bottle,0.10,4431_nse_dnn_0.10_bottle_10_n04560804_173.JPEG
cornet-s,4,592,NaN,chair,bottle,0.10,4432_nse_dnn_0.10_bottle_10_n04591713_7959.JPEG
cornet-s,4,593,NaN,clock,bottle,0.10,4433_nse_dnn_0.10_bottle_10_n03937543_5377.JPEG
cornet-s,4,594,NaN,clock,bottle,0.10,4434_nse_dnn_0.10_bottle_10_n04579145_110.JPEG
cornet-s,4,595,NaN,bottle,bottle,0.10,4435_nse_dnn_0.10_bottle_10_n04591713_1660.JPEG
cornet-s,4,596,NaN,clock,bottle,0.10,4436_nse_dnn_0.10_bottle_10_n04557648_1133.JPEG
cornet-s,4,597,NaN,keyboard,bottle,0.10,4437_nse_dnn_0.10_bottle_10_n03983396_1864.JPEG
cornet-s,4,598,NaN,chair,bottle,0.10,4438_nse_dnn_0.10_bottle_10_n04557648_3401.JPEG
cornet-s,4,599,NaN,bottle,bottle,0.10,4439_nse_dnn_0.10_bottle_10_n04591713_4035.JPEG
cornet-s,4,600,NaN,airplane,bottle,0.10,4440_nse_dnn_0.10_bottle_10_n03937543_7894.JPEG
cornet-s,4,601,NaN,truck,truck,0.10,4441_nse_dnn_0.10_truck_10_n03796401_10612.JPEG
cornet-s,4,602,NaN,boat,truck,0.10,4442_nse_dnn_0.10_truck_10_n03417042_15196.JPEG
cornet-s,4,603,NaN,truck,truck,0.10,4443_nse_dnn_0.10_truck_10_n03417042_16737.JPEG
cornet-s,4,604,NaN,chair,truck,0.10,4444_nse_dnn_0.10_truck_10_n03796401_15673.JPEG
cornet-s,4,605,NaN,truck,truck,0.10,4445_nse_dnn_0.10_truck_10_n03417042_20962.JPEG
cornet-s,4,606,NaN,boat,truck,0.10,4446_nse_dnn_0.10_truck_10_n03417042_15482.JPEG
cornet-s,4,607,NaN,chair,truck,0.10,4447_nse_dnn_0.10_truck_10_n04467665_3720.JPEG
cornet-s,4,608,NaN,truck,truck,0.10,4448_nse_dnn_0.10_truck_10_n03417042_1029.JPEG
cornet-s,4,609,NaN,boat,truck,0.10,4449_nse_dnn_0.10_truck_10_n03417042_27017.JPEG
cornet-s,4,610,NaN,bear,truck,0.10,4450_nse_dnn_0.10_truck_10_n03796401_7261.JPEG
cornet-s,4,611,NaN,keyboard,car,0.10,4451_nse_dnn_0.10_car_10_n04285008_1785.JPEG
cornet-s,4,612,NaN,truck,car,0.10,4452_nse_dnn_0.10_car_10_n02814533_874.JPEG
cornet-s,4,613,NaN,car,car,0.10,4453_nse_dnn_0.10_car_10_n02814533_14438.JPEG
cornet-s,4,614,NaN,chair,car,0.10,4454_nse_dnn_0.10_car_10_n02814533_94686.JPEG
cornet-s,4,615,NaN,truck,car,0.10,4455_nse_dnn_0.10_car_10_n03100240_21821.JPEG
cornet-s,4,616,NaN,boat,car,0.10,4456_nse_dnn_0.10_car_10_n03100240_9454.JPEG
cornet-s,4,617,NaN,car,car,0.10,4457_nse_dnn_0.10_car_10_n02814533_24244.JPEG
cornet-s,4,618,NaN,truck,car,0.10,4458_nse_dnn_0.10_car_10_n03100240_5957.JPEG
cornet-s,4,619,NaN,truck,car,0.10,4459_nse_dnn_0.10_car_10_n02814533_41569.JPEG
cornet-s,4,620,NaN,bear,car,0.10,4460_nse_dnn_0.10_car_10_n04285008_6410.JPEG
cornet-s,4,621,NaN,elephant,bird,0.10,4461_nse_dnn_0.10_bird_10_n01843383_9985.JPEG
cornet-s,4,622,NaN,chair,bird,0.10,4462_nse_dnn_0.10_bird_10_n01798484_23595.JPEG
cornet-s,4,623,NaN,bear,bird,0.10,4463_nse_dnn_0.10_bird_10_n01843383_3565.JPEG
cornet-s,4,624,NaN,boat,bird,0.10,4464_nse_dnn_0.10_bird_10_n01560419_5063.JPEG
cornet-s,4,625,NaN,elephant,bird,0.10,4465_nse_dnn_0.10_bird_10_n01833805_2730.JPEG
cornet-s,4,626,NaN,clock,bird,0.10,4466_nse_dnn_0.10_bird_10_n01829413_7896.JPEG
cornet-s,4,627,NaN,cat,bird,0.10,4467_nse_dnn_0.10_bird_10_n01582220_1814.JPEG
cornet-s,4,628,NaN,cat,bird,0.10,4468_nse_dnn_0.10_bird_10_n01558993_5607.JPEG
cornet-s,4,629,NaN,bottle,bird,0.10,4469_nse_dnn_0.10_bird_10_n01796340_12212.JPEG
cornet-s,4,630,NaN,chair,bird,0.10,4470_nse_dnn_0.10_bird_10_n01616318_5712.JPEG
cornet-s,4,631,NaN,bear,dog,0.10,4471_nse_dnn_0.10_dog_10_n02088238_11696.JPEG
cornet-s,4,632,NaN,dog,dog,0.10,4472_nse_dnn_0.10_dog_10_n02108422_844.JPEG
cornet-s,4,633,NaN,bear,dog,0.10,4473_nse_dnn_0.10_dog_10_n02113799_2693.JPEG
cornet-s,4,634,NaN,bear,dog,0.10,4474_nse_dnn_0.10_dog_10_n02105251_5953.JPEG
cornet-s,4,635,NaN,clock,dog,0.10,4475_nse_dnn_0.10_dog_10_n02095570_701.JPEG
cornet-s,4,636,NaN,cat,dog,0.10,4476_nse_dnn_0.10_dog_10_n02101556_11598.JPEG
cornet-s,4,637,NaN,bear,dog,0.10,4477_nse_dnn_0.10_dog_10_n02101556_11681.JPEG
cornet-s,4,638,NaN,bicycle,dog,0.10,4478_nse_dnn_0.10_dog_10_n02107908_8171.JPEG
cornet-s,4,639,NaN,cat,dog,0.10,4479_nse_dnn_0.10_dog_10_n02105641_7948.JPEG
cornet-s,4,640,NaN,cat,dog,0.10,4480_nse_dnn_0.10_dog_10_n02107312_5281.JPEG
cornet-s,4,641,NaN,chair,knife,0.20,4481_nse_dnn_0.20_knife_10_n03041632_33424.JPEG
cornet-s,4,642,NaN,keyboard,knife,0.20,4482_nse_dnn_0.20_knife_10_n03041632_48071.JPEG
cornet-s,4,643,NaN,cat,knife,0.20,4483_nse_dnn_0.20_knife_10_n03041632_17859.JPEG
cornet-s,4,644,NaN,bear,knife,0.20,4484_nse_dnn_0.20_knife_10_n03041632_34769.JPEG
cornet-s,4,645,NaN,chair,knife,0.20,4485_nse_dnn_0.20_knife_10_n03041632_27879.JPEG
cornet-s,4,646,NaN,cat,knife,0.20,4486_nse_dnn_0.20_knife_10_n03041632_7064.JPEG
cornet-s,4,647,NaN,clock,knife,0.20,4487_nse_dnn_0.20_knife_10_n03041632_89912.JPEG
cornet-s,4,648,NaN,keyboard,knife,0.20,4488_nse_dnn_0.20_knife_10_n03041632_3247.JPEG
cornet-s,4,649,NaN,clock,knife,0.20,4489_nse_dnn_0.20_knife_10_n03041632_4279.JPEG
cornet-s,4,650,NaN,clock,knife,0.20,4490_nse_dnn_0.20_knife_10_n03041632_8468.JPEG
cornet-s,4,651,NaN,knife,keyboard,0.20,4491_nse_dnn_0.20_keyboard_10_n04505470_4832.JPEG
cornet-s,4,652,NaN,chair,keyboard,0.20,4492_nse_dnn_0.20_keyboard_10_n04505470_2804.JPEG
cornet-s,4,653,NaN,boat,keyboard,0.20,4493_nse_dnn_0.20_keyboard_10_n04505470_1288.JPEG
cornet-s,4,654,NaN,boat,keyboard,0.20,4494_nse_dnn_0.20_keyboard_10_n03085013_25809.JPEG
cornet-s,4,655,NaN,cat,keyboard,0.20,4495_nse_dnn_0.20_keyboard_10_n04505470_4467.JPEG
cornet-s,4,656,NaN,clock,keyboard,0.20,4496_nse_dnn_0.20_keyboard_10_n04505470_8544.JPEG
cornet-s,4,657,NaN,chair,keyboard,0.20,4497_nse_dnn_0.20_keyboard_10_n03085013_23648.JPEG
cornet-s,4,658,NaN,keyboard,keyboard,0.20,4498_nse_dnn_0.20_keyboard_10_n04505470_1453.JPEG
cornet-s,4,659,NaN,elephant,keyboard,0.20,4499_nse_dnn_0.20_keyboard_10_n04505470_169.JPEG
cornet-s,4,660,NaN,clock,keyboard,0.20,4500_nse_dnn_0.20_keyboard_10_n03085013_15484.JPEG
cornet-s,4,661,NaN,cat,elephant,0.20,4501_nse_dnn_0.20_elephant_10_n02504458_5152.JPEG
cornet-s,4,662,NaN,bear,elephant,0.20,4502_nse_dnn_0.20_elephant_10_n02504013_4145.JPEG
cornet-s,4,663,NaN,bear,elephant,0.20,4503_nse_dnn_0.20_elephant_10_n02504013_2980.JPEG
cornet-s,4,664,NaN,boat,elephant,0.20,4504_nse_dnn_0.20_elephant_10_n02504458_7016.JPEG
cornet-s,4,665,NaN,clock,elephant,0.20,4505_nse_dnn_0.20_elephant_10_n02504013_2631.JPEG
cornet-s,4,666,NaN,chair,elephant,0.20,4506_nse_dnn_0.20_elephant_10_n02504458_2030.JPEG
cornet-s,4,667,NaN,clock,elephant,0.20,4507_nse_dnn_0.20_elephant_10_n02504013_2844.JPEG
cornet-s,4,668,NaN,cat,elephant,0.20,4508_nse_dnn_0.20_elephant_10_n02504013_7474.JPEG
cornet-s,4,669,NaN,chair,elephant,0.20,4509_nse_dnn_0.20_elephant_10_n02504013_4508.JPEG
cornet-s,4,670,NaN,chair,elephant,0.20,4510_nse_dnn_0.20_elephant_10_n02504013_637.JPEG
cornet-s,4,671,NaN,clock,bicycle,0.20,4511_nse_dnn_0.20_bicycle_10_n03792782_15424.JPEG
cornet-s,4,672,NaN,clock,bicycle,0.20,4512_nse_dnn_0.20_bicycle_10_n02835271_10764.JPEG
cornet-s,4,673,NaN,cat,bicycle,0.20,4513_nse_dnn_0.20_bicycle_10_n02835271_2525.JPEG
cornet-s,4,674,NaN,chair,bicycle,0.20,4514_nse_dnn_0.20_bicycle_10_n03792782_9086.JPEG
cornet-s,4,675,NaN,clock,bicycle,0.20,4515_nse_dnn_0.20_bicycle_10_n03792782_15898.JPEG
cornet-s,4,676,NaN,bear,bicycle,0.20,4516_nse_dnn_0.20_bicycle_10_n03792782_66159.JPEG
cornet-s,4,677,NaN,cat,bicycle,0.20,4517_nse_dnn_0.20_bicycle_10_n03792782_7650.JPEG
cornet-s,4,678,NaN,chair,bicycle,0.20,4518_nse_dnn_0.20_bicycle_10_n03792782_12096.JPEG
cornet-s,4,679,NaN,bottle,bicycle,0.20,4519_nse_dnn_0.20_bicycle_10_n02835271_15585.JPEG
cornet-s,4,680,NaN,elephant,bicycle,0.20,4520_nse_dnn_0.20_bicycle_10_n02835271_9202.JPEG
cornet-s,4,681,NaN,bottle,airplane,0.20,4521_nse_dnn_0.20_airplane_10_n02690373_6468.JPEG
cornet-s,4,682,NaN,cat,airplane,0.20,4522_nse_dnn_0.20_airplane_10_n02690373_5845.JPEG
cornet-s,4,683,NaN,chair,airplane,0.20,4523_nse_dnn_0.20_airplane_10_n02690373_3821.JPEG
cornet-s,4,684,NaN,clock,airplane,0.20,4524_nse_dnn_0.20_airplane_10_n02690373_4586.JPEG
cornet-s,4,685,NaN,chair,airplane,0.20,4525_nse_dnn_0.20_airplane_10_n02690373_5197.JPEG
cornet-s,4,686,NaN,chair,airplane,0.20,4526_nse_dnn_0.20_airplane_10_n02690373_2923.JPEG
cornet-s,4,687,NaN,chair,airplane,0.20,4527_nse_dnn_0.20_airplane_10_n02690373_3553.JPEG
cornet-s,4,688,NaN,chair,airplane,0.20,4528_nse_dnn_0.20_airplane_10_n02690373_20996.JPEG
cornet-s,4,689,NaN,chair,airplane,0.20,4529_nse_dnn_0.20_airplane_10_n02690373_8204.JPEG
cornet-s,4,690,NaN,chair,airplane,0.20,4530_nse_dnn_0.20_airplane_10_n02690373_4860.JPEG
cornet-s,4,691,NaN,clock,clock,0.20,4531_nse_dnn_0.20_clock_10_n03196217_4233.JPEG
cornet-s,4,692,NaN,clock,clock,0.20,4532_nse_dnn_0.20_clock_10_n04548280_4511.JPEG
cornet-s,4,693,NaN,clock,clock,0.20,4533_nse_dnn_0.20_clock_10_n04548280_9816.JPEG
cornet-s,4,694,NaN,bear,clock,0.20,4534_nse_dnn_0.20_clock_10_n04548280_5382.JPEG
cornet-s,4,695,NaN,clock,clock,0.20,4535_nse_dnn_0.20_clock_10_n03196217_10634.JPEG
cornet-s,4,696,NaN,clock,clock,0.20,4536_nse_dnn_0.20_clock_10_n02708093_2806.JPEG
cornet-s,4,697,NaN,clock,clock,0.20,4537_nse_dnn_0.20_clock_10_n02708093_774.JPEG
cornet-s,4,698,NaN,clock,clock,0.20,4538_nse_dnn_0.20_clock_10_n04548280_7568.JPEG
cornet-s,4,699,NaN,clock,clock,0.20,4539_nse_dnn_0.20_clock_10_n02708093_6597.JPEG
cornet-s,4,700,NaN,clock,clock,0.20,4540_nse_dnn_0.20_clock_10_n02708093_6591.JPEG
cornet-s,4,701,NaN,clock,oven,0.20,4541_nse_dnn_0.20_oven_10_n04111531_9314.JPEG
cornet-s,4,702,NaN,clock,oven,0.20,4542_nse_dnn_0.20_oven_10_n04111531_8144.JPEG
cornet-s,4,703,NaN,chair,oven,0.20,4543_nse_dnn_0.20_oven_10_n04111531_8009.JPEG
cornet-s,4,704,NaN,chair,oven,0.20,4544_nse_dnn_0.20_oven_10_n04111531_3976.JPEG
cornet-s,4,705,NaN,chair,oven,0.20,4545_nse_dnn_0.20_oven_10_n04111531_2770.JPEG
cornet-s,4,706,NaN,boat,oven,0.20,4546_nse_dnn_0.20_oven_10_n04111531_523.JPEG
cornet-s,4,707,NaN,chair,oven,0.20,4547_nse_dnn_0.20_oven_10_n04111531_2042.JPEG
cornet-s,4,708,NaN,clock,oven,0.20,4548_nse_dnn_0.20_oven_10_n04111531_13277.JPEG
cornet-s,4,709,NaN,chair,oven,0.20,4549_nse_dnn_0.20_oven_10_n04111531_15267.JPEG
cornet-s,4,710,NaN,clock,oven,0.20,4550_nse_dnn_0.20_oven_10_n04111531_3570.JPEG
cornet-s,4,711,NaN,chair,chair,0.20,4551_nse_dnn_0.20_chair_10_n02791124_2536.JPEG
cornet-s,4,712,NaN,boat,chair,0.20,4552_nse_dnn_0.20_chair_10_n04429376_9053.JPEG
cornet-s,4,713,NaN,clock,chair,0.20,4553_nse_dnn_0.20_chair_10_n04429376_14863.JPEG
cornet-s,4,714,NaN,chair,chair,0.20,4554_nse_dnn_0.20_chair_10_n03376595_17747.JPEG
cornet-s,4,715,NaN,keyboard,chair,0.20,4555_nse_dnn_0.20_chair_10_n04099969_18182.JPEG
cornet-s,4,716,NaN,bicycle,chair,0.20,4556_nse_dnn_0.20_chair_10_n02791124_15778.JPEG
cornet-s,4,717,NaN,chair,chair,0.20,4557_nse_dnn_0.20_chair_10_n04429376_34588.JPEG
cornet-s,4,718,NaN,bear,chair,0.20,4558_nse_dnn_0.20_chair_10_n02791124_1258.JPEG
cornet-s,4,719,NaN,chair,chair,0.20,4559_nse_dnn_0.20_chair_10_n02791124_10521.JPEG
cornet-s,4,720,NaN,chair,chair,0.20,4560_nse_dnn_0.20_chair_10_n02791124_3857.JPEG
cornet-s,4,721,NaN,cat,bear,0.20,4561_nse_dnn_0.20_bear_10_n02134084_5079.JPEG
cornet-s,4,722,NaN,chair,bear,0.20,4562_nse_dnn_0.20_bear_10_n02134084_14260.JPEG
cornet-s,4,723,NaN,chair,bear,0.20,4563_nse_dnn_0.20_bear_10_n02133161_5712.JPEG
cornet-s,4,724,NaN,clock,bear,0.20,4564_nse_dnn_0.20_bear_10_n02132136_2771.JPEG
cornet-s,4,725,NaN,cat,bear,0.20,4565_nse_dnn_0.20_bear_10_n02132136_9433.JPEG
cornet-s,4,726,NaN,clock,bear,0.20,4566_nse_dnn_0.20_bear_10_n02134418_3312.JPEG
cornet-s,4,727,NaN,chair,bear,0.20,4567_nse_dnn_0.20_bear_10_n02134418_5132.JPEG
cornet-s,4,728,NaN,chair,bear,0.20,4568_nse_dnn_0.20_bear_10_n02134418_5045.JPEG
cornet-s,4,729,NaN,cat,bear,0.20,4569_nse_dnn_0.20_bear_10_n02133161_2029.JPEG
cornet-s,4,730,NaN,keyboard,bear,0.20,4570_nse_dnn_0.20_bear_10_n02133161_15954.JPEG
cornet-s,4,731,NaN,chair,boat,0.20,4571_nse_dnn_0.20_boat_10_n03662601_14014.JPEG
cornet-s,4,732,NaN,chair,boat,0.20,4572_nse_dnn_0.20_boat_10_n03662601_12226.JPEG
cornet-s,4,733,NaN,clock,boat,0.20,4573_nse_dnn_0.20_boat_10_n03662601_30731.JPEG
cornet-s,4,734,NaN,chair,boat,0.20,4574_nse_dnn_0.20_boat_10_n02951358_9837.JPEG
cornet-s,4,735,NaN,chair,boat,0.20,4575_nse_dnn_0.20_boat_10_n02951358_3675.JPEG
cornet-s,4,736,NaN,boat,boat,0.20,4576_nse_dnn_0.20_boat_10_n02951358_14730.JPEG
cornet-s,4,737,NaN,boat,boat,0.20,4577_nse_dnn_0.20_boat_10_n04612504_6308.JPEG
cornet-s,4,738,NaN,chair,boat,0.20,4578_nse_dnn_0.20_boat_10_n02951358_537.JPEG
cornet-s,4,739,NaN,clock,boat,0.20,4579_nse_dnn_0.20_boat_10_n03662601_6462.JPEG
cornet-s,4,740,NaN,chair,boat,0.20,4580_nse_dnn_0.20_boat_10_n03662601_15970.JPEG
cornet-s,4,741,NaN,cat,cat,0.20,4581_nse_dnn_0.20_cat_10_n02123045_4181.JPEG
cornet-s,4,742,NaN,bottle,cat,0.20,4582_nse_dnn_0.20_cat_10_n02123045_10703.JPEG
cornet-s,4,743,NaN,clock,cat,0.20,4583_nse_dnn_0.20_cat_10_n02123597_7563.JPEG
cornet-s,4,744,NaN,chair,cat,0.20,4584_nse_dnn_0.20_cat_10_n02123159_2236.JPEG
cornet-s,4,745,NaN,chair,cat,0.20,4585_nse_dnn_0.20_cat_10_n02123597_7136.JPEG
cornet-s,4,746,NaN,cat,cat,0.20,4586_nse_dnn_0.20_cat_10_n02123597_624.JPEG
cornet-s,4,747,NaN,clock,cat,0.20,4587_nse_dnn_0.20_cat_10_n02123159_2592.JPEG
cornet-s,4,748,NaN,clock,cat,0.20,4588_nse_dnn_0.20_cat_10_n02123045_3347.JPEG
cornet-s,4,749,NaN,chair,cat,0.20,4589_nse_dnn_0.20_cat_10_n02124075_8431.JPEG
cornet-s,4,750,NaN,chair,cat,0.20,4590_nse_dnn_0.20_cat_10_n02124075_7196.JPEG
cornet-s,4,751,NaN,cat,bottle,0.20,4591_nse_dnn_0.20_bottle_10_n03937543_1120.JPEG
cornet-s,4,752,NaN,clock,bottle,0.20,4592_nse_dnn_0.20_bottle_10_n04557648_5684.JPEG
cornet-s,4,753,NaN,bottle,bottle,0.20,4593_nse_dnn_0.20_bottle_10_n04560804_8845.JPEG
cornet-s,4,754,NaN,clock,bottle,0.20,4594_nse_dnn_0.20_bottle_10_n04591713_78.JPEG
cornet-s,4,755,NaN,chair,bottle,0.20,4595_nse_dnn_0.20_bottle_10_n02823428_725.JPEG
cornet-s,4,756,NaN,cat,bottle,0.20,4596_nse_dnn_0.20_bottle_10_n04591713_1739.JPEG
cornet-s,4,757,NaN,keyboard,bottle,0.20,4597_nse_dnn_0.20_bottle_10_n03937543_5508.JPEG
cornet-s,4,758,NaN,chair,bottle,0.20,4598_nse_dnn_0.20_bottle_10_n02823428_3619.JPEG
cornet-s,4,759,NaN,clock,bottle,0.20,4599_nse_dnn_0.20_bottle_10_n04557648_10265.JPEG
cornet-s,4,760,NaN,clock,bottle,0.20,4600_nse_dnn_0.20_bottle_10_n04560804_1497.JPEG
cornet-s,4,761,NaN,boat,truck,0.20,4601_nse_dnn_0.20_truck_10_n04467665_67909.JPEG
cornet-s,4,762,NaN,chair,truck,0.20,4602_nse_dnn_0.20_truck_10_n03417042_3592.JPEG
cornet-s,4,763,NaN,clock,truck,0.20,4603_nse_dnn_0.20_truck_10_n03417042_14500.JPEG
cornet-s,4,764,NaN,chair,truck,0.20,4604_nse_dnn_0.20_truck_10_n03417042_19862.JPEG
cornet-s,4,765,NaN,clock,truck,0.20,4605_nse_dnn_0.20_truck_10_n04467665_21087.JPEG
cornet-s,4,766,NaN,boat,truck,0.20,4606_nse_dnn_0.20_truck_10_n04467665_39373.JPEG
cornet-s,4,767,NaN,chair,truck,0.20,4607_nse_dnn_0.20_truck_10_n04467665_4287.JPEG
cornet-s,4,768,NaN,boat,truck,0.20,4608_nse_dnn_0.20_truck_10_n03417042_4420.JPEG
cornet-s,4,769,NaN,chair,truck,0.20,4609_nse_dnn_0.20_truck_10_n03796401_17201.JPEG
cornet-s,4,770,NaN,chair,truck,0.20,4610_nse_dnn_0.20_truck_10_n04467665_10036.JPEG
cornet-s,4,771,NaN,clock,car,0.20,4611_nse_dnn_0.20_car_10_n04285008_12573.JPEG
cornet-s,4,772,NaN,bicycle,car,0.20,4612_nse_dnn_0.20_car_10_n02814533_9055.JPEG
cornet-s,4,773,NaN,chair,car,0.20,4613_nse_dnn_0.20_car_10_n04285008_8212.JPEG
cornet-s,4,774,NaN,boat,car,0.20,4614_nse_dnn_0.20_car_10_n02814533_85312.JPEG
cornet-s,4,775,NaN,boat,car,0.20,4615_nse_dnn_0.20_car_10_n03100240_1535.JPEG
cornet-s,4,776,NaN,chair,car,0.20,4616_nse_dnn_0.20_car_10_n02814533_31291.JPEG
cornet-s,4,777,NaN,bicycle,car,0.20,4617_nse_dnn_0.20_car_10_n04285008_7816.JPEG
cornet-s,4,778,NaN,cat,car,0.20,4618_nse_dnn_0.20_car_10_n02814533_62356.JPEG
cornet-s,4,779,NaN,chair,car,0.20,4619_nse_dnn_0.20_car_10_n03100240_20489.JPEG
cornet-s,4,780,NaN,boat,car,0.20,4620_nse_dnn_0.20_car_10_n03100240_264.JPEG
cornet-s,4,781,NaN,boat,bird,0.20,4621_nse_dnn_0.20_bird_10_n02009912_9983.JPEG
cornet-s,4,782,NaN,cat,bird,0.20,4622_nse_dnn_0.20_bird_10_n01855032_1693.JPEG
cornet-s,4,783,NaN,clock,bird,0.20,4623_nse_dnn_0.20_bird_10_n01592084_7086.JPEG
cornet-s,4,784,NaN,cat,bird,0.20,4624_nse_dnn_0.20_bird_10_n02056570_5770.JPEG
cornet-s,4,785,NaN,boat,bird,0.20,4625_nse_dnn_0.20_bird_10_n01614925_8737.JPEG
cornet-s,4,786,NaN,clock,bird,0.20,4626_nse_dnn_0.20_bird_10_n01818515_14616.JPEG
cornet-s,4,787,NaN,bottle,bird,0.20,4627_nse_dnn_0.20_bird_10_n01614925_338.JPEG
cornet-s,4,788,NaN,chair,bird,0.20,4628_nse_dnn_0.20_bird_10_n02037110_785.JPEG
cornet-s,4,789,NaN,bear,bird,0.20,4629_nse_dnn_0.20_bird_10_n01817953_3601.JPEG
cornet-s,4,790,NaN,chair,bird,0.20,4630_nse_dnn_0.20_bird_10_n02051845_3423.JPEG
cornet-s,4,791,NaN,chair,dog,0.20,4631_nse_dnn_0.20_dog_10_n02109961_16520.JPEG
cornet-s,4,792,NaN,bear,dog,0.20,4632_nse_dnn_0.20_dog_10_n02088364_4676.JPEG
cornet-s,4,793,NaN,cat,dog,0.20,4633_nse_dnn_0.20_dog_10_n02107142_21231.JPEG
cornet-s,4,794,NaN,chair,dog,0.20,4634_nse_dnn_0.20_dog_10_n02109047_11090.JPEG
cornet-s,4,795,NaN,bottle,dog,0.20,4635_nse_dnn_0.20_dog_10_n02105056_5668.JPEG
cornet-s,4,796,NaN,cat,dog,0.20,4636_nse_dnn_0.20_dog_10_n02086646_5927.JPEG
cornet-s,4,797,NaN,cat,dog,0.20,4637_nse_dnn_0.20_dog_10_n02097298_10484.JPEG
cornet-s,4,798,NaN,chair,dog,0.20,4638_nse_dnn_0.20_dog_10_n02106550_8500.JPEG
cornet-s,4,799,NaN,clock,dog,0.20,4639_nse_dnn_0.20_dog_10_n02106382_2750.JPEG
cornet-s,4,800,NaN,boat,dog,0.20,4640_nse_dnn_0.20_dog_10_n02099267_3701.JPEG
cornet-s,4,801,NaN,clock,knife,0.35,4641_nse_dnn_0.35_knife_10_n03041632_13656.JPEG
cornet-s,4,802,NaN,clock,knife,0.35,4642_nse_dnn_0.35_knife_10_n03041632_40652.JPEG
cornet-s,4,803,NaN,clock,knife,0.35,4643_nse_dnn_0.35_knife_10_n03041632_40508.JPEG
cornet-s,4,804,NaN,bottle,knife,0.35,4644_nse_dnn_0.35_knife_10_n03041632_15099.JPEG
cornet-s,4,805,NaN,clock,knife,0.35,4645_nse_dnn_0.35_knife_10_n03041632_1556.JPEG
cornet-s,4,806,NaN,bottle,knife,0.35,4646_nse_dnn_0.35_knife_10_n03041632_932.JPEG
cornet-s,4,807,NaN,clock,knife,0.35,4647_nse_dnn_0.35_knife_10_n03041632_11797.JPEG
cornet-s,4,808,NaN,bottle,knife,0.35,4648_nse_dnn_0.35_knife_10_n03041632_26340.JPEG
cornet-s,4,809,NaN,cat,knife,0.35,4649_nse_dnn_0.35_knife_10_n03041632_13478.JPEG
cornet-s,4,810,NaN,clock,knife,0.35,4650_nse_dnn_0.35_knife_10_n03041632_13130.JPEG
cornet-s,4,811,NaN,bottle,keyboard,0.35,4651_nse_dnn_0.35_keyboard_10_n04505470_5128.JPEG
cornet-s,4,812,NaN,bottle,keyboard,0.35,4652_nse_dnn_0.35_keyboard_10_n03085013_23905.JPEG
cornet-s,4,813,NaN,clock,keyboard,0.35,4653_nse_dnn_0.35_keyboard_10_n03085013_21490.JPEG
cornet-s,4,814,NaN,bottle,keyboard,0.35,4654_nse_dnn_0.35_keyboard_10_n04505470_1118.JPEG
cornet-s,4,815,NaN,cat,keyboard,0.35,4655_nse_dnn_0.35_keyboard_10_n03085013_24408.JPEG
cornet-s,4,816,NaN,knife,keyboard,0.35,4656_nse_dnn_0.35_keyboard_10_n03085013_24272.JPEG
cornet-s,4,817,NaN,clock,keyboard,0.35,4657_nse_dnn_0.35_keyboard_10_n03085013_5812.JPEG
cornet-s,4,818,NaN,clock,keyboard,0.35,4658_nse_dnn_0.35_keyboard_10_n03085013_22796.JPEG
cornet-s,4,819,NaN,clock,keyboard,0.35,4659_nse_dnn_0.35_keyboard_10_n03085013_24044.JPEG
cornet-s,4,820,NaN,bottle,keyboard,0.35,4660_nse_dnn_0.35_keyboard_10_n04505470_945.JPEG
cornet-s,4,821,NaN,clock,elephant,0.35,4661_nse_dnn_0.35_elephant_10_n02504458_5774.JPEG
cornet-s,4,822,NaN,clock,elephant,0.35,4662_nse_dnn_0.35_elephant_10_n02504013_21311.JPEG
cornet-s,4,823,NaN,clock,elephant,0.35,4663_nse_dnn_0.35_elephant_10_n02504013_2032.JPEG
cornet-s,4,824,NaN,clock,elephant,0.35,4664_nse_dnn_0.35_elephant_10_n02504458_1844.JPEG
cornet-s,4,825,NaN,bottle,elephant,0.35,4665_nse_dnn_0.35_elephant_10_n02504013_2976.JPEG
cornet-s,4,826,NaN,bottle,elephant,0.35,4666_nse_dnn_0.35_elephant_10_n02504458_8134.JPEG
cornet-s,4,827,NaN,clock,elephant,0.35,4667_nse_dnn_0.35_elephant_10_n02504013_13560.JPEG
cornet-s,4,828,NaN,bottle,elephant,0.35,4668_nse_dnn_0.35_elephant_10_n02504013_2545.JPEG
cornet-s,4,829,NaN,bear,elephant,0.35,4669_nse_dnn_0.35_elephant_10_n02504458_954.JPEG
cornet-s,4,830,NaN,bottle,elephant,0.35,4670_nse_dnn_0.35_elephant_10_n02504013_174.JPEG
cornet-s,4,831,NaN,bottle,bicycle,0.35,4671_nse_dnn_0.35_bicycle_10_n02835271_949.JPEG
cornet-s,4,832,NaN,clock,bicycle,0.35,4672_nse_dnn_0.35_bicycle_10_n03792782_11169.JPEG
cornet-s,4,833,NaN,bottle,bicycle,0.35,4673_nse_dnn_0.35_bicycle_10_n03792782_8224.JPEG
cornet-s,4,834,NaN,bottle,bicycle,0.35,4674_nse_dnn_0.35_bicycle_10_n03792782_70169.JPEG
cornet-s,4,835,NaN,clock,bicycle,0.35,4675_nse_dnn_0.35_bicycle_10_n03792782_1782.JPEG
cornet-s,4,836,NaN,clock,bicycle,0.35,4676_nse_dnn_0.35_bicycle_10_n02835271_3811.JPEG
cornet-s,4,837,NaN,clock,bicycle,0.35,4677_nse_dnn_0.35_bicycle_10_n02835271_21043.JPEG
cornet-s,4,838,NaN,bottle,bicycle,0.35,4678_nse_dnn_0.35_bicycle_10_n02835271_4409.JPEG
cornet-s,4,839,NaN,bottle,bicycle,0.35,4679_nse_dnn_0.35_bicycle_10_n03792782_11118.JPEG
cornet-s,4,840,NaN,bottle,bicycle,0.35,4680_nse_dnn_0.35_bicycle_10_n03792782_15016.JPEG
cornet-s,4,841,NaN,bottle,airplane,0.35,4681_nse_dnn_0.35_airplane_10_n02690373_2564.JPEG
cornet-s,4,842,NaN,bottle,airplane,0.35,4682_nse_dnn_0.35_airplane_10_n02690373_8175.JPEG
cornet-s,4,843,NaN,clock,airplane,0.35,4683_nse_dnn_0.35_airplane_10_n02690373_7229.JPEG
cornet-s,4,844,NaN,clock,airplane,0.35,4684_nse_dnn_0.35_airplane_10_n02690373_1986.JPEG
cornet-s,4,845,NaN,clock,airplane,0.35,4685_nse_dnn_0.35_airplane_10_n02690373_4195.JPEG
cornet-s,4,846,NaN,bottle,airplane,0.35,4686_nse_dnn_0.35_airplane_10_n02690373_9335.JPEG
cornet-s,4,847,NaN,cat,airplane,0.35,4687_nse_dnn_0.35_airplane_10_n02690373_1615.JPEG
cornet-s,4,848,NaN,clock,airplane,0.35,4688_nse_dnn_0.35_airplane_10_n02690373_10278.JPEG
cornet-s,4,849,NaN,clock,airplane,0.35,4689_nse_dnn_0.35_airplane_10_n02690373_2648.JPEG
cornet-s,4,850,NaN,clock,airplane,0.35,4690_nse_dnn_0.35_airplane_10_n02690373_464.JPEG
cornet-s,4,851,NaN,bottle,clock,0.35,4691_nse_dnn_0.35_clock_10_n03196217_5493.JPEG
cornet-s,4,852,NaN,bottle,clock,0.35,4692_nse_dnn_0.35_clock_10_n04548280_9700.JPEG
cornet-s,4,853,NaN,clock,clock,0.35,4693_nse_dnn_0.35_clock_10_n03196217_8618.JPEG
cornet-s,4,854,NaN,bottle,clock,0.35,4694_nse_dnn_0.35_clock_10_n04548280_22849.JPEG
cornet-s,4,855,NaN,chair,clock,0.35,4695_nse_dnn_0.35_clock_10_n03196217_7533.JPEG
cornet-s,4,856,NaN,bottle,clock,0.35,4696_nse_dnn_0.35_clock_10_n03196217_11351.JPEG
cornet-s,4,857,NaN,clock,clock,0.35,4697_nse_dnn_0.35_clock_10_n03196217_4537.JPEG
cornet-s,4,858,NaN,clock,clock,0.35,4698_nse_dnn_0.35_clock_10_n04548280_8071.JPEG
cornet-s,4,859,NaN,clock,clock,0.35,4699_nse_dnn_0.35_clock_10_n02708093_6890.JPEG
cornet-s,4,860,NaN,clock,clock,0.35,4700_nse_dnn_0.35_clock_10_n04548280_3716.JPEG
cornet-s,4,861,NaN,knife,oven,0.35,4701_nse_dnn_0.35_oven_10_n04111531_2987.JPEG
cornet-s,4,862,NaN,bottle,oven,0.35,4702_nse_dnn_0.35_oven_10_n04111531_8917.JPEG
cornet-s,4,863,NaN,bottle,oven,0.35,4703_nse_dnn_0.35_oven_10_n04111531_4944.JPEG
cornet-s,4,864,NaN,clock,oven,0.35,4704_nse_dnn_0.35_oven_10_n04111531_2930.JPEG
cornet-s,4,865,NaN,bottle,oven,0.35,4705_nse_dnn_0.35_oven_10_n04111531_1847.JPEG
cornet-s,4,866,NaN,bottle,oven,0.35,4706_nse_dnn_0.35_oven_10_n04111531_1150.JPEG
cornet-s,4,867,NaN,clock,oven,0.35,4707_nse_dnn_0.35_oven_10_n04111531_10290.JPEG
cornet-s,4,868,NaN,bottle,oven,0.35,4708_nse_dnn_0.35_oven_10_n04111531_5110.JPEG
cornet-s,4,869,NaN,bottle,oven,0.35,4709_nse_dnn_0.35_oven_10_n04111531_3886.JPEG
cornet-s,4,870,NaN,clock,oven,0.35,4710_nse_dnn_0.35_oven_10_n04111531_19240.JPEG
cornet-s,4,871,NaN,clock,chair,0.35,4711_nse_dnn_0.35_chair_10_n03376595_7631.JPEG
cornet-s,4,872,NaN,clock,chair,0.35,4712_nse_dnn_0.35_chair_10_n03376595_11114.JPEG
cornet-s,4,873,NaN,bottle,chair,0.35,4713_nse_dnn_0.35_chair_10_n04429376_20716.JPEG
cornet-s,4,874,NaN,bottle,chair,0.35,4714_nse_dnn_0.35_chair_10_n03376595_3812.JPEG
cornet-s,4,875,NaN,bottle,chair,0.35,4715_nse_dnn_0.35_chair_10_n02791124_2223.JPEG
cornet-s,4,876,NaN,chair,chair,0.35,4716_nse_dnn_0.35_chair_10_n04099969_14091.JPEG
cornet-s,4,877,NaN,clock,chair,0.35,4717_nse_dnn_0.35_chair_10_n02791124_3817.JPEG
cornet-s,4,878,NaN,clock,chair,0.35,4718_nse_dnn_0.35_chair_10_n02791124_2773.JPEG
cornet-s,4,879,NaN,bottle,chair,0.35,4719_nse_dnn_0.35_chair_10_n04099969_2523.JPEG
cornet-s,4,880,NaN,bottle,chair,0.35,4720_nse_dnn_0.35_chair_10_n02791124_1390.JPEG
cornet-s,4,881,NaN,bottle,bear,0.35,4721_nse_dnn_0.35_bear_10_n02133161_12901.JPEG
cornet-s,4,882,NaN,clock,bear,0.35,4722_nse_dnn_0.35_bear_10_n02134084_13027.JPEG
cornet-s,4,883,NaN,clock,bear,0.35,4723_nse_dnn_0.35_bear_10_n02134084_1564.JPEG
cornet-s,4,884,NaN,bottle,bear,0.35,4724_nse_dnn_0.35_bear_10_n02134084_27144.JPEG
cornet-s,4,885,NaN,bear,bear,0.35,4725_nse_dnn_0.35_bear_10_n02133161_1715.JPEG
cornet-s,4,886,NaN,bottle,bear,0.35,4726_nse_dnn_0.35_bear_10_n02134084_21321.JPEG
cornet-s,4,887,NaN,clock,bear,0.35,4727_nse_dnn_0.35_bear_10_n02133161_4398.JPEG
cornet-s,4,888,NaN,bottle,bear,0.35,4728_nse_dnn_0.35_bear_10_n02134084_1889.JPEG
cornet-s,4,889,NaN,bottle,bear,0.35,4729_nse_dnn_0.35_bear_10_n02134084_7773.JPEG
cornet-s,4,890,NaN,bottle,bear,0.35,4730_nse_dnn_0.35_bear_10_n02133161_14204.JPEG
cornet-s,4,891,NaN,clock,boat,0.35,4731_nse_dnn_0.35_boat_10_n03662601_7336.JPEG
cornet-s,4,892,NaN,bottle,boat,0.35,4732_nse_dnn_0.35_boat_10_n03344393_5350.JPEG
cornet-s,4,893,NaN,bottle,boat,0.35,4733_nse_dnn_0.35_boat_10_n04273569_8189.JPEG
cornet-s,4,894,NaN,clock,boat,0.35,4734_nse_dnn_0.35_boat_10_n04273569_51.JPEG
cornet-s,4,895,NaN,chair,boat,0.35,4735_nse_dnn_0.35_boat_10_n03344393_7011.JPEG
cornet-s,4,896,NaN,bottle,boat,0.35,4736_nse_dnn_0.35_boat_10_n04612504_10864.JPEG
cornet-s,4,897,NaN,bottle,boat,0.35,4737_nse_dnn_0.35_boat_10_n04612504_9825.JPEG
cornet-s,4,898,NaN,bottle,boat,0.35,4738_nse_dnn_0.35_boat_10_n03344393_4083.JPEG
cornet-s,4,899,NaN,bottle,boat,0.35,4739_nse_dnn_0.35_boat_10_n03662601_27589.JPEG
cornet-s,4,900,NaN,clock,boat,0.35,4740_nse_dnn_0.35_boat_10_n04273569_13298.JPEG
cornet-s,4,901,NaN,bottle,cat,0.35,4741_nse_dnn_0.35_cat_10_n02123159_835.JPEG
cornet-s,4,902,NaN,clock,cat,0.35,4742_nse_dnn_0.35_cat_10_n02123597_14023.JPEG
cornet-s,4,903,NaN,clock,cat,0.35,4743_nse_dnn_0.35_cat_10_n02125311_4626.JPEG
cornet-s,4,904,NaN,bottle,cat,0.35,4744_nse_dnn_0.35_cat_10_n02123045_169.JPEG
cornet-s,4,905,NaN,clock,cat,0.35,4745_nse_dnn_0.35_cat_10_n02125311_46591.JPEG
cornet-s,4,906,NaN,bear,cat,0.35,4746_nse_dnn_0.35_cat_10_n02123159_8241.JPEG
cornet-s,4,907,NaN,bottle,cat,0.35,4747_nse_dnn_0.35_cat_10_n02123394_1653.JPEG
cornet-s,4,908,NaN,bottle,cat,0.35,4748_nse_dnn_0.35_cat_10_n02123597_13901.JPEG
cornet-s,4,909,NaN,bottle,cat,0.35,4749_nse_dnn_0.35_cat_10_n02125311_19876.JPEG
cornet-s,4,910,NaN,bottle,cat,0.35,4750_nse_dnn_0.35_cat_10_n02125311_2737.JPEG
cornet-s,4,911,NaN,bottle,bottle,0.35,4751_nse_dnn_0.35_bottle_10_n03937543_9524.JPEG
cornet-s,4,912,NaN,bottle,bottle,0.35,4752_nse_dnn_0.35_bottle_10_n03983396_12049.JPEG
cornet-s,4,913,NaN,clock,bottle,0.35,4753_nse_dnn_0.35_bottle_10_n03983396_4439.JPEG
cornet-s,4,914,NaN,clock,bottle,0.35,4754_nse_dnn_0.35_bottle_10_n02823428_4468.JPEG
cornet-s,4,915,NaN,clock,bottle,0.35,4755_nse_dnn_0.35_bottle_10_n04591713_4367.JPEG
cornet-s,4,916,NaN,clock,bottle,0.35,4756_nse_dnn_0.35_bottle_10_n04557648_16525.JPEG
cornet-s,4,917,NaN,clock,bottle,0.35,4757_nse_dnn_0.35_bottle_10_n04560804_5756.JPEG
cornet-s,4,918,NaN,knife,bottle,0.35,4758_nse_dnn_0.35_bottle_10_n03937543_10543.JPEG
cornet-s,4,919,NaN,clock,bottle,0.35,4759_nse_dnn_0.35_bottle_10_n04557648_3364.JPEG
cornet-s,4,920,NaN,clock,bottle,0.35,4760_nse_dnn_0.35_bottle_10_n04591713_941.JPEG
cornet-s,4,921,NaN,clock,truck,0.35,4761_nse_dnn_0.35_truck_10_n03796401_5053.JPEG
cornet-s,4,922,NaN,bottle,truck,0.35,4762_nse_dnn_0.35_truck_10_n03796401_11076.JPEG
cornet-s,4,923,NaN,bottle,truck,0.35,4763_nse_dnn_0.35_truck_10_n04467665_23055.JPEG
cornet-s,4,924,NaN,clock,truck,0.35,4764_nse_dnn_0.35_truck_10_n04467665_71055.JPEG
cornet-s,4,925,NaN,bottle,truck,0.35,4765_nse_dnn_0.35_truck_10_n03417042_7530.JPEG
cornet-s,4,926,NaN,clock,truck,0.35,4766_nse_dnn_0.35_truck_10_n03417042_11435.JPEG
cornet-s,4,927,NaN,bottle,truck,0.35,4767_nse_dnn_0.35_truck_10_n03417042_19838.JPEG
cornet-s,4,928,NaN,bear,truck,0.35,4768_nse_dnn_0.35_truck_10_n04467665_28888.JPEG
cornet-s,4,929,NaN,elephant,truck,0.35,4769_nse_dnn_0.35_truck_10_n04467665_70886.JPEG
cornet-s,4,930,NaN,bottle,truck,0.35,4770_nse_dnn_0.35_truck_10_n04467665_24332.JPEG
cornet-s,4,931,NaN,bottle,car,0.35,4771_nse_dnn_0.35_car_10_n02814533_92253.JPEG
cornet-s,4,932,NaN,bottle,car,0.35,4772_nse_dnn_0.35_car_10_n03100240_12747.JPEG
cornet-s,4,933,NaN,bottle,car,0.35,4773_nse_dnn_0.35_car_10_n04285008_860.JPEG
cornet-s,4,934,NaN,clock,car,0.35,4774_nse_dnn_0.35_car_10_n02814533_42059.JPEG
cornet-s,4,935,NaN,bottle,car,0.35,4775_nse_dnn_0.35_car_10_n04285008_5869.JPEG
cornet-s,4,936,NaN,clock,car,0.35,4776_nse_dnn_0.35_car_10_n02814533_8345.JPEG
cornet-s,4,937,NaN,bottle,car,0.35,4777_nse_dnn_0.35_car_10_n04285008_3268.JPEG
cornet-s,4,938,NaN,bottle,car,0.35,4778_nse_dnn_0.35_car_10_n03100240_2667.JPEG
cornet-s,4,939,NaN,bottle,car,0.35,4779_nse_dnn_0.35_car_10_n02814533_34149.JPEG
cornet-s,4,940,NaN,chair,car,0.35,4780_nse_dnn_0.35_car_10_n04285008_3160.JPEG
cornet-s,4,941,NaN,clock,bird,0.35,4781_nse_dnn_0.35_bird_10_n01537544_2374.JPEG
cornet-s,4,942,NaN,bottle,bird,0.35,4782_nse_dnn_0.35_bird_10_n01592084_5167.JPEG
cornet-s,4,943,NaN,bottle,bird,0.35,4783_nse_dnn_0.35_bird_10_n01537544_5047.JPEG
cornet-s,4,944,NaN,bottle,bird,0.35,4784_nse_dnn_0.35_bird_10_n01824575_2061.JPEG
cornet-s,4,945,NaN,bottle,bird,0.35,4785_nse_dnn_0.35_bird_10_n01560419_18486.JPEG
cornet-s,4,946,NaN,bottle,bird,0.35,4786_nse_dnn_0.35_bird_10_n02051845_11207.JPEG
cornet-s,4,947,NaN,clock,bird,0.35,4787_nse_dnn_0.35_bird_10_n01531178_12589.JPEG
cornet-s,4,948,NaN,clock,bird,0.35,4788_nse_dnn_0.35_bird_10_n01601694_1368.JPEG
cornet-s,4,949,NaN,bottle,bird,0.35,4789_nse_dnn_0.35_bird_10_n01797886_18701.JPEG
cornet-s,4,950,NaN,clock,bird,0.35,4790_nse_dnn_0.35_bird_10_n01592084_6261.JPEG
cornet-s,4,951,NaN,bottle,dog,0.35,4791_nse_dnn_0.35_dog_10_n02088364_13616.JPEG
cornet-s,4,952,NaN,bottle,dog,0.35,4792_nse_dnn_0.35_dog_10_n02099429_5687.JPEG
cornet-s,4,953,NaN,cat,dog,0.35,4793_nse_dnn_0.35_dog_10_n02087046_4489.JPEG
cornet-s,4,954,NaN,clock,dog,0.35,4794_nse_dnn_0.35_dog_10_n02111129_1681.JPEG
cornet-s,4,955,NaN,clock,dog,0.35,4795_nse_dnn_0.35_dog_10_n02109961_2172.JPEG
cornet-s,4,956,NaN,clock,dog,0.35,4796_nse_dnn_0.35_dog_10_n02105641_13242.JPEG
cornet-s,4,957,NaN,clock,dog,0.35,4797_nse_dnn_0.35_dog_10_n02099712_3541.JPEG
cornet-s,4,958,NaN,clock,dog,0.35,4798_nse_dnn_0.35_dog_10_n02097130_344.JPEG
cornet-s,4,959,NaN,clock,dog,0.35,4799_nse_dnn_0.35_dog_10_n02094258_5084.JPEG
cornet-s,4,960,NaN,cat,dog,0.35,4800_nse_dnn_0.35_dog_10_n02097658_6920.JPEG
cornet-s,4,961,NaN,bottle,knife,0.60,4801_nse_dnn_0.60_knife_10_n03041632_10796.JPEG
cornet-s,4,962,NaN,clock,knife,0.60,4802_nse_dnn_0.60_knife_10_n03041632_39952.JPEG
cornet-s,4,963,NaN,bottle,knife,0.60,4803_nse_dnn_0.60_knife_10_n03041632_28009.JPEG
cornet-s,4,964,NaN,bottle,knife,0.60,4804_nse_dnn_0.60_knife_10_n03041632_1671.JPEG
cornet-s,4,965,NaN,clock,knife,0.60,4805_nse_dnn_0.60_knife_10_n03041632_14293.JPEG
cornet-s,4,966,NaN,clock,knife,0.60,4806_nse_dnn_0.60_knife_10_n03041632_49513.JPEG
cornet-s,4,967,NaN,clock,knife,0.60,4807_nse_dnn_0.60_knife_10_n03041632_44238.JPEG
cornet-s,4,968,NaN,bottle,knife,0.60,4808_nse_dnn_0.60_knife_10_n03041632_80829.JPEG
cornet-s,4,969,NaN,bottle,knife,0.60,4809_nse_dnn_0.60_knife_10_n03041632_2468.JPEG
cornet-s,4,970,NaN,clock,knife,0.60,4810_nse_dnn_0.60_knife_10_n03041632_4975.JPEG
cornet-s,4,971,NaN,clock,keyboard,0.60,4811_nse_dnn_0.60_keyboard_10_n04505470_1903.JPEG
cornet-s,4,972,NaN,clock,keyboard,0.60,4812_nse_dnn_0.60_keyboard_10_n03085013_5539.JPEG
cornet-s,4,973,NaN,clock,keyboard,0.60,4813_nse_dnn_0.60_keyboard_10_n03085013_2860.JPEG
cornet-s,4,974,NaN,bottle,keyboard,0.60,4814_nse_dnn_0.60_keyboard_10_n03085013_21641.JPEG
cornet-s,4,975,NaN,bottle,keyboard,0.60,4815_nse_dnn_0.60_keyboard_10_n04505470_1097.JPEG
cornet-s,4,976,NaN,clock,keyboard,0.60,4816_nse_dnn_0.60_keyboard_10_n04505470_2427.JPEG
cornet-s,4,977,NaN,clock,keyboard,0.60,4817_nse_dnn_0.60_keyboard_10_n03085013_25181.JPEG
cornet-s,4,978,NaN,bottle,keyboard,0.60,4818_nse_dnn_0.60_keyboard_10_n03085013_679.JPEG
cornet-s,4,979,NaN,bottle,keyboard,0.60,4819_nse_dnn_0.60_keyboard_10_n03085013_23867.JPEG
cornet-s,4,980,NaN,clock,keyboard,0.60,4820_nse_dnn_0.60_keyboard_10_n04505470_1529.JPEG
cornet-s,4,981,NaN,bottle,elephant,0.60,4821_nse_dnn_0.60_elephant_10_n02504458_5972.JPEG
cornet-s,4,982,NaN,bottle,elephant,0.60,4822_nse_dnn_0.60_elephant_10_n02504013_2075.JPEG
cornet-s,4,983,NaN,clock,elephant,0.60,4823_nse_dnn_0.60_elephant_10_n02504013_4718.JPEG
cornet-s,4,984,NaN,clock,elephant,0.60,4824_nse_dnn_0.60_elephant_10_n02504013_93.JPEG
cornet-s,4,985,NaN,clock,elephant,0.60,4825_nse_dnn_0.60_elephant_10_n02504458_11961.JPEG
cornet-s,4,986,NaN,clock,elephant,0.60,4826_nse_dnn_0.60_elephant_10_n02504458_5483.JPEG
cornet-s,4,987,NaN,bottle,elephant,0.60,4827_nse_dnn_0.60_elephant_10_n02504458_7708.JPEG
cornet-s,4,988,NaN,clock,elephant,0.60,4828_nse_dnn_0.60_elephant_10_n02504458_1929.JPEG
cornet-s,4,989,NaN,clock,elephant,0.60,4829_nse_dnn_0.60_elephant_10_n02504458_8291.JPEG
cornet-s,4,990,NaN,clock,elephant,0.60,4830_nse_dnn_0.60_elephant_10_n02504458_2618.JPEG
cornet-s,4,991,NaN,clock,bicycle,0.60,4831_nse_dnn_0.60_bicycle_10_n02835271_12861.JPEG
cornet-s,4,992,NaN,clock,bicycle,0.60,4832_nse_dnn_0.60_bicycle_10_n02835271_11929.JPEG
cornet-s,4,993,NaN,bottle,bicycle,0.60,4833_nse_dnn_0.60_bicycle_10_n02835271_44763.JPEG
cornet-s,4,994,NaN,bottle,bicycle,0.60,4834_nse_dnn_0.60_bicycle_10_n03792782_30942.JPEG
cornet-s,4,995,NaN,clock,bicycle,0.60,4835_nse_dnn_0.60_bicycle_10_n03792782_52581.JPEG
cornet-s,4,996,NaN,clock,bicycle,0.60,4836_nse_dnn_0.60_bicycle_10_n03792782_51723.JPEG
cornet-s,4,997,NaN,bottle,bicycle,0.60,4837_nse_dnn_0.60_bicycle_10_n02835271_8689.JPEG
cornet-s,4,998,NaN,clock,bicycle,0.60,4838_nse_dnn_0.60_bicycle_10_n03792782_11390.JPEG
cornet-s,4,999,NaN,bottle,bicycle,0.60,4839_nse_dnn_0.60_bicycle_10_n02835271_15266.JPEG
cornet-s,4,1000,NaN,clock,bicycle,0.60,4840_nse_dnn_0.60_bicycle_10_n02835271_8105.JPEG
cornet-s,4,1001,NaN,clock,airplane,0.60,4841_nse_dnn_0.60_airplane_10_n02690373_2629.JPEG
cornet-s,4,1002,NaN,clock,airplane,0.60,4842_nse_dnn_0.60_airplane_10_n02690373_3729.JPEG
cornet-s,4,1003,NaN,clock,airplane,0.60,4843_nse_dnn_0.60_airplane_10_n02690373_6803.JPEG
cornet-s,4,1004,NaN,clock,airplane,0.60,4844_nse_dnn_0.60_airplane_10_n02690373_5475.JPEG
cornet-s,4,1005,NaN,clock,airplane,0.60,4845_nse_dnn_0.60_airplane_10_n02690373_6144.JPEG
cornet-s,4,1006,NaN,clock,airplane,0.60,4846_nse_dnn_0.60_airplane_10_n02690373_1974.JPEG
cornet-s,4,1007,NaN,clock,airplane,0.60,4847_nse_dnn_0.60_airplane_10_n02690373_16250.JPEG
cornet-s,4,1008,NaN,clock,airplane,0.60,4848_nse_dnn_0.60_airplane_10_n02690373_6147.JPEG
cornet-s,4,1009,NaN,clock,airplane,0.60,4849_nse_dnn_0.60_airplane_10_n02690373_1038.JPEG
cornet-s,4,1010,NaN,clock,airplane,0.60,4850_nse_dnn_0.60_airplane_10_n02690373_8527.JPEG
cornet-s,4,1011,NaN,bottle,clock,0.60,4851_nse_dnn_0.60_clock_10_n02708093_2178.JPEG
cornet-s,4,1012,NaN,clock,clock,0.60,4852_nse_dnn_0.60_clock_10_n03196217_11035.JPEG
cornet-s,4,1013,NaN,clock,clock,0.60,4853_nse_dnn_0.60_clock_10_n04548280_2227.JPEG
cornet-s,4,1014,NaN,clock,clock,0.60,4854_nse_dnn_0.60_clock_10_n02708093_1384.JPEG
cornet-s,4,1015,NaN,clock,clock,0.60,4855_nse_dnn_0.60_clock_10_n04548280_7687.JPEG
cornet-s,4,1016,NaN,bottle,clock,0.60,4856_nse_dnn_0.60_clock_10_n04548280_4526.JPEG
cornet-s,4,1017,NaN,bottle,clock,0.60,4857_nse_dnn_0.60_clock_10_n04548280_1166.JPEG
cornet-s,4,1018,NaN,clock,clock,0.60,4858_nse_dnn_0.60_clock_10_n04548280_5273.JPEG
cornet-s,4,1019,NaN,clock,clock,0.60,4859_nse_dnn_0.60_clock_10_n04548280_8917.JPEG
cornet-s,4,1020,NaN,bottle,clock,0.60,4860_nse_dnn_0.60_clock_10_n04548280_7321.JPEG
cornet-s,4,1021,NaN,clock,oven,0.60,4861_nse_dnn_0.60_oven_10_n04111531_2643.JPEG
cornet-s,4,1022,NaN,clock,oven,0.60,4862_nse_dnn_0.60_oven_10_n04111531_6128.JPEG
cornet-s,4,1023,NaN,clock,oven,0.60,4863_nse_dnn_0.60_oven_10_n04111531_7923.JPEG
cornet-s,4,1024,NaN,clock,oven,0.60,4864_nse_dnn_0.60_oven_10_n04111531_15629.JPEG
cornet-s,4,1025,NaN,bottle,oven,0.60,4865_nse_dnn_0.60_oven_10_n04111531_1298.JPEG
cornet-s,4,1026,NaN,clock,oven,0.60,4866_nse_dnn_0.60_oven_10_n04111531_14126.JPEG
cornet-s,4,1027,NaN,clock,oven,0.60,4867_nse_dnn_0.60_oven_10_n04111531_7097.JPEG
cornet-s,4,1028,NaN,bottle,oven,0.60,4868_nse_dnn_0.60_oven_10_n04111531_8688.JPEG
cornet-s,4,1029,NaN,clock,oven,0.60,4869_nse_dnn_0.60_oven_10_n04111531_2797.JPEG
cornet-s,4,1030,NaN,clock,oven,0.60,4870_nse_dnn_0.60_oven_10_n04111531_22386.JPEG
cornet-s,4,1031,NaN,bottle,chair,0.60,4871_nse_dnn_0.60_chair_10_n04429376_16869.JPEG
cornet-s,4,1032,NaN,bottle,chair,0.60,4872_nse_dnn_0.60_chair_10_n04429376_10453.JPEG
cornet-s,4,1033,NaN,clock,chair,0.60,4873_nse_dnn_0.60_chair_10_n04099969_1854.JPEG
cornet-s,4,1034,NaN,clock,chair,0.60,4874_nse_dnn_0.60_chair_10_n04099969_4902.JPEG
cornet-s,4,1035,NaN,clock,chair,0.60,4875_nse_dnn_0.60_chair_10_n02791124_1798.JPEG
cornet-s,4,1036,NaN,bottle,chair,0.60,4876_nse_dnn_0.60_chair_10_n04429376_11642.JPEG
cornet-s,4,1037,NaN,clock,chair,0.60,4877_nse_dnn_0.60_chair_10_n04429376_18127.JPEG
cornet-s,4,1038,NaN,bottle,chair,0.60,4878_nse_dnn_0.60_chair_10_n04099969_7147.JPEG
cornet-s,4,1039,NaN,clock,chair,0.60,4879_nse_dnn_0.60_chair_10_n02791124_422.JPEG
cornet-s,4,1040,NaN,clock,chair,0.60,4880_nse_dnn_0.60_chair_10_n03376595_2891.JPEG
cornet-s,4,1041,NaN,bottle,bear,0.60,4881_nse_dnn_0.60_bear_10_n02133161_2252.JPEG
cornet-s,4,1042,NaN,bottle,bear,0.60,4882_nse_dnn_0.60_bear_10_n02133161_14109.JPEG
cornet-s,4,1043,NaN,clock,bear,0.60,4883_nse_dnn_0.60_bear_10_n02132136_4821.JPEG
cornet-s,4,1044,NaN,clock,bear,0.60,4884_nse_dnn_0.60_bear_10_n02132136_23163.JPEG
cornet-s,4,1045,NaN,clock,bear,0.60,4885_nse_dnn_0.60_bear_10_n02133161_7996.JPEG
cornet-s,4,1046,NaN,clock,bear,0.60,4886_nse_dnn_0.60_bear_10_n02133161_3187.JPEG
cornet-s,4,1047,NaN,clock,bear,0.60,4887_nse_dnn_0.60_bear_10_n02132136_2029.JPEG
cornet-s,4,1048,NaN,clock,bear,0.60,4888_nse_dnn_0.60_bear_10_n02132136_2391.JPEG
cornet-s,4,1049,NaN,clock,bear,0.60,4889_nse_dnn_0.60_bear_10_n02132136_1847.JPEG
cornet-s,4,1050,NaN,clock,bear,0.60,4890_nse_dnn_0.60_bear_10_n02132136_6547.JPEG
cornet-s,4,1051,NaN,clock,boat,0.60,4891_nse_dnn_0.60_boat_10_n04273569_11964.JPEG
cornet-s,4,1052,NaN,bottle,boat,0.60,4892_nse_dnn_0.60_boat_10_n02951358_8446.JPEG
cornet-s,4,1053,NaN,clock,boat,0.60,4893_nse_dnn_0.60_boat_10_n04273569_9015.JPEG
cornet-s,4,1054,NaN,clock,boat,0.60,4894_nse_dnn_0.60_boat_10_n02951358_94.JPEG
cornet-s,4,1055,NaN,clock,boat,0.60,4895_nse_dnn_0.60_boat_10_n03662601_81.JPEG
cornet-s,4,1056,NaN,bottle,boat,0.60,4896_nse_dnn_0.60_boat_10_n04612504_6667.JPEG
cornet-s,4,1057,NaN,clock,boat,0.60,4897_nse_dnn_0.60_boat_10_n03344393_9560.JPEG
cornet-s,4,1058,NaN,clock,boat,0.60,4898_nse_dnn_0.60_boat_10_n03662601_9233.JPEG
cornet-s,4,1059,NaN,clock,boat,0.60,4899_nse_dnn_0.60_boat_10_n04273569_2723.JPEG
cornet-s,4,1060,NaN,clock,boat,0.60,4900_nse_dnn_0.60_boat_10_n03344393_2002.JPEG
cornet-s,4,1061,NaN,clock,cat,0.60,4901_nse_dnn_0.60_cat_10_n02123597_7814.JPEG
cornet-s,4,1062,NaN,clock,cat,0.60,4902_nse_dnn_0.60_cat_10_n02123597_6919.JPEG
cornet-s,4,1063,NaN,bottle,cat,0.60,4903_nse_dnn_0.60_cat_10_n02123045_2318.JPEG
cornet-s,4,1064,NaN,clock,cat,0.60,4904_nse_dnn_0.60_cat_10_n02124075_11168.JPEG
cornet-s,4,1065,NaN,clock,cat,0.60,4905_nse_dnn_0.60_cat_10_n02123045_8127.JPEG
cornet-s,4,1066,NaN,clock,cat,0.60,4906_nse_dnn_0.60_cat_10_n02125311_36254.JPEG
cornet-s,4,1067,NaN,clock,cat,0.60,4907_nse_dnn_0.60_cat_10_n02123159_7364.JPEG
cornet-s,4,1068,NaN,bottle,cat,0.60,4908_nse_dnn_0.60_cat_10_n02125311_48873.JPEG
cornet-s,4,1069,NaN,bottle,cat,0.60,4909_nse_dnn_0.60_cat_10_n02123597_7470.JPEG
cornet-s,4,1070,NaN,clock,cat,0.60,4910_nse_dnn_0.60_cat_10_n02123045_5388.JPEG
cornet-s,4,1071,NaN,bottle,bottle,0.60,4911_nse_dnn_0.60_bottle_10_n03937543_958.JPEG
cornet-s,4,1072,NaN,bottle,bottle,0.60,4912_nse_dnn_0.60_bottle_10_n04591713_362.JPEG
cornet-s,4,1073,NaN,clock,bottle,0.60,4913_nse_dnn_0.60_bottle_10_n03983396_644.JPEG
cornet-s,4,1074,NaN,bottle,bottle,0.60,4914_nse_dnn_0.60_bottle_10_n04591713_6698.JPEG
cornet-s,4,1075,NaN,clock,bottle,0.60,4915_nse_dnn_0.60_bottle_10_n03983396_14605.JPEG
cornet-s,4,1076,NaN,bottle,bottle,0.60,4916_nse_dnn_0.60_bottle_10_n04560804_15432.JPEG
cornet-s,4,1077,NaN,clock,bottle,0.60,4917_nse_dnn_0.60_bottle_10_n04591713_7611.JPEG
cornet-s,4,1078,NaN,clock,bottle,0.60,4918_nse_dnn_0.60_bottle_10_n03983396_11025.JPEG
cornet-s,4,1079,NaN,bottle,bottle,0.60,4919_nse_dnn_0.60_bottle_10_n04591713_2713.JPEG
cornet-s,4,1080,NaN,bottle,bottle,0.60,4920_nse_dnn_0.60_bottle_10_n03983396_2053.JPEG
cornet-s,4,1081,NaN,clock,truck,0.60,4921_nse_dnn_0.60_truck_10_n04467665_51991.JPEG
cornet-s,4,1082,NaN,bottle,truck,0.60,4922_nse_dnn_0.60_truck_10_n04467665_70579.JPEG
cornet-s,4,1083,NaN,bottle,truck,0.60,4923_nse_dnn_0.60_truck_10_n03417042_21663.JPEG
cornet-s,4,1084,NaN,clock,truck,0.60,4924_nse_dnn_0.60_truck_10_n03417042_12988.JPEG
cornet-s,4,1085,NaN,bottle,truck,0.60,4925_nse_dnn_0.60_truck_10_n03417042_7506.JPEG
cornet-s,4,1086,NaN,clock,truck,0.60,4926_nse_dnn_0.60_truck_10_n03417042_29384.JPEG
cornet-s,4,1087,NaN,clock,truck,0.60,4927_nse_dnn_0.60_truck_10_n04467665_59039.JPEG
cornet-s,4,1088,NaN,clock,truck,0.60,4928_nse_dnn_0.60_truck_10_n03417042_3047.JPEG
cornet-s,4,1089,NaN,clock,truck,0.60,4929_nse_dnn_0.60_truck_10_n03417042_9698.JPEG
cornet-s,4,1090,NaN,clock,truck,0.60,4930_nse_dnn_0.60_truck_10_n03796401_5338.JPEG
cornet-s,4,1091,NaN,clock,car,0.60,4931_nse_dnn_0.60_car_10_n03100240_10110.JPEG
cornet-s,4,1092,NaN,clock,car,0.60,4932_nse_dnn_0.60_car_10_n03100240_10502.JPEG
cornet-s,4,1093,NaN,clock,car,0.60,4933_nse_dnn_0.60_car_10_n03100240_1011.JPEG
cornet-s,4,1094,NaN,bottle,car,0.60,4934_nse_dnn_0.60_car_10_n02814533_78691.JPEG
cornet-s,4,1095,NaN,bottle,car,0.60,4935_nse_dnn_0.60_car_10_n03100240_12545.JPEG
cornet-s,4,1096,NaN,clock,car,0.60,4936_nse_dnn_0.60_car_10_n04285008_12484.JPEG
cornet-s,4,1097,NaN,clock,car,0.60,4937_nse_dnn_0.60_car_10_n02814533_83588.JPEG
cornet-s,4,1098,NaN,clock,car,0.60,4938_nse_dnn_0.60_car_10_n04285008_3440.JPEG
cornet-s,4,1099,NaN,clock,car,0.60,4939_nse_dnn_0.60_car_10_n04285008_16409.JPEG
cornet-s,4,1100,NaN,clock,car,0.60,4940_nse_dnn_0.60_car_10_n04285008_8668.JPEG
cornet-s,4,1101,NaN,bottle,bird,0.60,4941_nse_dnn_0.60_bird_10_n01582220_24058.JPEG
cornet-s,4,1102,NaN,bottle,bird,0.60,4942_nse_dnn_0.60_bird_10_n01514859_3112.JPEG
cornet-s,4,1103,NaN,clock,bird,0.60,4943_nse_dnn_0.60_bird_10_n01514859_5824.JPEG
cornet-s,4,1104,NaN,clock,bird,0.60,4944_nse_dnn_0.60_bird_10_n01616318_2671.JPEG
cornet-s,4,1105,NaN,clock,bird,0.60,4945_nse_dnn_0.60_bird_10_n01818515_7890.JPEG
cornet-s,4,1106,NaN,clock,bird,0.60,4946_nse_dnn_0.60_bird_10_n01514859_10653.JPEG
cornet-s,4,1107,NaN,clock,bird,0.60,4947_nse_dnn_0.60_bird_10_n02018207_995.JPEG
cornet-s,4,1108,NaN,clock,bird,0.60,4948_nse_dnn_0.60_bird_10_n01795545_12380.JPEG
cornet-s,4,1109,NaN,bottle,bird,0.60,4949_nse_dnn_0.60_bird_10_n01824575_2319.JPEG
cornet-s,4,1110,NaN,bottle,bird,0.60,4950_nse_dnn_0.60_bird_10_n02017213_14022.JPEG
cornet-s,4,1111,NaN,clock,dog,0.60,4951_nse_dnn_0.60_dog_10_n02106662_3692.JPEG
cornet-s,4,1112,NaN,clock,dog,0.60,4952_nse_dnn_0.60_dog_10_n02099849_1969.JPEG
cornet-s,4,1113,NaN,clock,dog,0.60,4953_nse_dnn_0.60_dog_10_n02098286_4074.JPEG
cornet-s,4,1114,NaN,bottle,dog,0.60,4954_nse_dnn_0.60_dog_10_n02093754_7671.JPEG
cornet-s,4,1115,NaN,bottle,dog,0.60,4955_nse_dnn_0.60_dog_10_n02106662_36265.JPEG
cornet-s,4,1116,NaN,clock,dog,0.60,4956_nse_dnn_0.60_dog_10_n02099601_9913.JPEG
cornet-s,4,1117,NaN,bottle,dog,0.60,4957_nse_dnn_0.60_dog_10_n02088238_12378.JPEG
cornet-s,4,1118,NaN,clock,dog,0.60,4958_nse_dnn_0.60_dog_10_n02102318_114.JPEG
cornet-s,4,1119,NaN,clock,dog,0.60,4959_nse_dnn_0.60_dog_10_n02088632_1389.JPEG
cornet-s,4,1120,NaN,clock,dog,0.60,4960_nse_dnn_0.60_dog_10_n02099712_6807.JPEG
cornet-s,4,1121,NaN,clock,knife,0.90,4961_nse_dnn_0.90_knife_10_n03041632_21818.JPEG
cornet-s,4,1122,NaN,clock,knife,0.90,4962_nse_dnn_0.90_knife_10_n03041632_3101.JPEG
cornet-s,4,1123,NaN,clock,knife,0.90,4963_nse_dnn_0.90_knife_10_n03041632_29580.JPEG
cornet-s,4,1124,NaN,clock,knife,0.90,4964_nse_dnn_0.90_knife_10_n03041632_22190.JPEG
cornet-s,4,1125,NaN,clock,knife,0.90,4965_nse_dnn_0.90_knife_10_n03041632_3210.JPEG
cornet-s,4,1126,NaN,clock,knife,0.90,4966_nse_dnn_0.90_knife_10_n03041632_31483.JPEG
cornet-s,4,1127,NaN,clock,knife,0.90,4967_nse_dnn_0.90_knife_10_n03041632_11358.JPEG
cornet-s,4,1128,NaN,clock,knife,0.90,4968_nse_dnn_0.90_knife_10_n03041632_3326.JPEG
cornet-s,4,1129,NaN,clock,knife,0.90,4969_nse_dnn_0.90_knife_10_n03041632_7119.JPEG
cornet-s,4,1130,NaN,clock,knife,0.90,4970_nse_dnn_0.90_knife_10_n03041632_21723.JPEG
cornet-s,4,1131,NaN,clock,keyboard,0.90,4971_nse_dnn_0.90_keyboard_10_n04505470_1831.JPEG
cornet-s,4,1132,NaN,clock,keyboard,0.90,4972_nse_dnn_0.90_keyboard_10_n03085013_3439.JPEG
cornet-s,4,1133,NaN,clock,keyboard,0.90,4973_nse_dnn_0.90_keyboard_10_n04505470_5009.JPEG
cornet-s,4,1134,NaN,clock,keyboard,0.90,4974_nse_dnn_0.90_keyboard_10_n04505470_5152.JPEG
cornet-s,4,1135,NaN,clock,keyboard,0.90,4975_nse_dnn_0.90_keyboard_10_n03085013_21602.JPEG
cornet-s,4,1136,NaN,clock,keyboard,0.90,4976_nse_dnn_0.90_keyboard_10_n04505470_3261.JPEG
cornet-s,4,1137,NaN,clock,keyboard,0.90,4977_nse_dnn_0.90_keyboard_10_n04505470_10035.JPEG
cornet-s,4,1138,NaN,clock,keyboard,0.90,4978_nse_dnn_0.90_keyboard_10_n03085013_25875.JPEG
cornet-s,4,1139,NaN,clock,keyboard,0.90,4979_nse_dnn_0.90_keyboard_10_n03085013_23763.JPEG
cornet-s,4,1140,NaN,clock,keyboard,0.90,4980_nse_dnn_0.90_keyboard_10_n03085013_13982.JPEG
cornet-s,4,1141,NaN,clock,elephant,0.90,4981_nse_dnn_0.90_elephant_10_n02504013_6243.JPEG
cornet-s,4,1142,NaN,clock,elephant,0.90,4982_nse_dnn_0.90_elephant_10_n02504458_10088.JPEG
cornet-s,4,1143,NaN,clock,elephant,0.90,4983_nse_dnn_0.90_elephant_10_n02504458_4643.JPEG
cornet-s,4,1144,NaN,clock,elephant,0.90,4984_nse_dnn_0.90_elephant_10_n02504458_3533.JPEG
cornet-s,4,1145,NaN,clock,elephant,0.90,4985_nse_dnn_0.90_elephant_10_n02504458_3757.JPEG
cornet-s,4,1146,NaN,clock,elephant,0.90,4986_nse_dnn_0.90_elephant_10_n02504013_5636.JPEG
cornet-s,4,1147,NaN,clock,elephant,0.90,4987_nse_dnn_0.90_elephant_10_n02504013_4547.JPEG
cornet-s,4,1148,NaN,clock,elephant,0.90,4988_nse_dnn_0.90_elephant_10_n02504458_3953.JPEG
cornet-s,4,1149,NaN,clock,elephant,0.90,4989_nse_dnn_0.90_elephant_10_n02504013_565.JPEG
cornet-s,4,1150,NaN,clock,elephant,0.90,4990_nse_dnn_0.90_elephant_10_n02504458_5797.JPEG
cornet-s,4,1151,NaN,clock,bicycle,0.90,4991_nse_dnn_0.90_bicycle_10_n03792782_7270.JPEG
cornet-s,4,1152,NaN,clock,bicycle,0.90,4992_nse_dnn_0.90_bicycle_10_n03792782_7269.JPEG
cornet-s,4,1153,NaN,clock,bicycle,0.90,4993_nse_dnn_0.90_bicycle_10_n03792782_15757.JPEG
cornet-s,4,1154,NaN,clock,bicycle,0.90,4994_nse_dnn_0.90_bicycle_10_n03792782_77949.JPEG
cornet-s,4,1155,NaN,clock,bicycle,0.90,4995_nse_dnn_0.90_bicycle_10_n02835271_9000.JPEG
cornet-s,4,1156,NaN,clock,bicycle,0.90,4996_nse_dnn_0.90_bicycle_10_n02835271_1284.JPEG
cornet-s,4,1157,NaN,clock,bicycle,0.90,4997_nse_dnn_0.90_bicycle_10_n03792782_5864.JPEG
cornet-s,4,1158,NaN,clock,bicycle,0.90,4998_nse_dnn_0.90_bicycle_10_n02835271_17182.JPEG
cornet-s,4,1159,NaN,clock,bicycle,0.90,4999_nse_dnn_0.90_bicycle_10_n03792782_4682.JPEG
cornet-s,4,1160,NaN,clock,bicycle,0.90,5000_nse_dnn_0.90_bicycle_10_n03792782_12257.JPEG
cornet-s,4,1161,NaN,clock,airplane,0.90,5001_nse_dnn_0.90_airplane_10_n02690373_1306.JPEG
cornet-s,4,1162,NaN,clock,airplane,0.90,5002_nse_dnn_0.90_airplane_10_n02690373_9680.JPEG
cornet-s,4,1163,NaN,clock,airplane,0.90,5003_nse_dnn_0.90_airplane_10_n02690373_7908.JPEG
cornet-s,4,1164,NaN,clock,airplane,0.90,5004_nse_dnn_0.90_airplane_10_n02690373_3877.JPEG
cornet-s,4,1165,NaN,clock,airplane,0.90,5005_nse_dnn_0.90_airplane_10_n02690373_1005.JPEG
cornet-s,4,1166,NaN,clock,airplane,0.90,5006_nse_dnn_0.90_airplane_10_n02690373_8382.JPEG
cornet-s,4,1167,NaN,clock,airplane,0.90,5007_nse_dnn_0.90_airplane_10_n02690373_10207.JPEG
cornet-s,4,1168,NaN,clock,airplane,0.90,5008_nse_dnn_0.90_airplane_10_n02690373_5003.JPEG
cornet-s,4,1169,NaN,clock,airplane,0.90,5009_nse_dnn_0.90_airplane_10_n02690373_3736.JPEG
cornet-s,4,1170,NaN,clock,airplane,0.90,5010_nse_dnn_0.90_airplane_10_n02690373_8631.JPEG
cornet-s,4,1171,NaN,clock,clock,0.90,5011_nse_dnn_0.90_clock_10_n04548280_1112.JPEG
cornet-s,4,1172,NaN,clock,clock,0.90,5012_nse_dnn_0.90_clock_10_n02708093_4201.JPEG
cornet-s,4,1173,NaN,clock,clock,0.90,5013_nse_dnn_0.90_clock_10_n02708093_4391.JPEG
cornet-s,4,1174,NaN,clock,clock,0.90,5014_nse_dnn_0.90_clock_10_n02708093_3213.JPEG
cornet-s,4,1175,NaN,clock,clock,0.90,5015_nse_dnn_0.90_clock_10_n02708093_675.JPEG
cornet-s,4,1176,NaN,clock,clock,0.90,5016_nse_dnn_0.90_clock_10_n04548280_1323.JPEG
cornet-s,4,1177,NaN,clock,clock,0.90,5017_nse_dnn_0.90_clock_10_n04548280_117.JPEG
cornet-s,4,1178,NaN,clock,clock,0.90,5018_nse_dnn_0.90_clock_10_n02708093_7816.JPEG
cornet-s,4,1179,NaN,clock,clock,0.90,5019_nse_dnn_0.90_clock_10_n04548280_3208.JPEG
cornet-s,4,1180,NaN,clock,clock,0.90,5020_nse_dnn_0.90_clock_10_n03196217_1473.JPEG
cornet-s,4,1181,NaN,clock,oven,0.90,5021_nse_dnn_0.90_oven_10_n04111531_326.JPEG
cornet-s,4,1182,NaN,clock,oven,0.90,5022_nse_dnn_0.90_oven_10_n04111531_22923.JPEG
cornet-s,4,1183,NaN,clock,oven,0.90,5023_nse_dnn_0.90_oven_10_n04111531_1989.JPEG
cornet-s,4,1184,NaN,clock,oven,0.90,5024_nse_dnn_0.90_oven_10_n04111531_14325.JPEG
cornet-s,4,1185,NaN,clock,oven,0.90,5025_nse_dnn_0.90_oven_10_n04111531_14383.JPEG
cornet-s,4,1186,NaN,clock,oven,0.90,5026_nse_dnn_0.90_oven_10_n04111531_797.JPEG
cornet-s,4,1187,NaN,clock,oven,0.90,5027_nse_dnn_0.90_oven_10_n04111531_5346.JPEG
cornet-s,4,1188,NaN,clock,oven,0.90,5028_nse_dnn_0.90_oven_10_n04111531_23907.JPEG
cornet-s,4,1189,NaN,clock,oven,0.90,5029_nse_dnn_0.90_oven_10_n04111531_3270.JPEG
cornet-s,4,1190,NaN,clock,oven,0.90,5030_nse_dnn_0.90_oven_10_n04111531_8238.JPEG
