subj,session,trial,rt,object_response,category,condition,imagename
cornet-s,3,1,NaN,knife,knife,0,2561_lp_dnn_0_knife_10_n03041632_22214.png
cornet-s,3,2,NaN,knife,knife,0,2562_lp_dnn_0_knife_10_n03041632_13465.png
cornet-s,3,3,NaN,knife,knife,0,2563_lp_dnn_0_knife_10_n03041632_11495.png
cornet-s,3,4,NaN,knife,knife,0,2564_lp_dnn_0_knife_10_n03041632_29285.png
cornet-s,3,5,NaN,knife,knife,0,2565_lp_dnn_0_knife_10_n03041632_36247.png
cornet-s,3,6,NaN,knife,knife,0,2566_lp_dnn_0_knife_10_n03041632_45775.png
cornet-s,3,7,NaN,bicycle,knife,0,2567_lp_dnn_0_knife_10_n03041632_25498.png
cornet-s,3,8,NaN,oven,knife,0,2568_lp_dnn_0_knife_10_n03041632_31849.png
cornet-s,3,9,NaN,knife,knife,0,2569_lp_dnn_0_knife_10_n03041632_44019.png
cornet-s,3,10,NaN,knife,knife,0,2570_lp_dnn_0_knife_10_n03041632_17859.png
cornet-s,3,11,NaN,keyboard,keyboard,0,2571_lp_dnn_0_keyboard_10_n03085013_4281.png
cornet-s,3,12,NaN,keyboard,keyboard,0,2572_lp_dnn_0_keyboard_10_n03085013_20906.png
cornet-s,3,13,NaN,keyboard,keyboard,0,2573_lp_dnn_0_keyboard_10_n03085013_23144.png
cornet-s,3,14,NaN,keyboard,keyboard,0,2574_lp_dnn_0_keyboard_10_n03085013_22585.png
cornet-s,3,15,NaN,keyboard,keyboard,0,2575_lp_dnn_0_keyboard_10_n04505470_4554.png
cornet-s,3,16,NaN,keyboard,keyboard,0,2576_lp_dnn_0_keyboard_10_n03085013_21082.png
cornet-s,3,17,NaN,keyboard,keyboard,0,2577_lp_dnn_0_keyboard_10_n04505470_4887.png
cornet-s,3,18,NaN,keyboard,keyboard,0,2578_lp_dnn_0_keyboard_10_n03085013_24963.png
cornet-s,3,19,NaN,keyboard,keyboard,0,2579_lp_dnn_0_keyboard_10_n03085013_23546.png
cornet-s,3,20,NaN,keyboard,keyboard,0,2580_lp_dnn_0_keyboard_10_n03085013_24510.png
cornet-s,3,21,NaN,elephant,elephant,0,2581_lp_dnn_0_elephant_10_n02504458_1512.png
cornet-s,3,22,NaN,elephant,elephant,0,2582_lp_dnn_0_elephant_10_n02504013_173.png
cornet-s,3,23,NaN,elephant,elephant,0,2583_lp_dnn_0_elephant_10_n02504458_488.png
cornet-s,3,24,NaN,elephant,elephant,0,2584_lp_dnn_0_elephant_10_n02504013_11223.png
cornet-s,3,25,NaN,elephant,elephant,0,2585_lp_dnn_0_elephant_10_n02504013_4062.png
cornet-s,3,26,NaN,elephant,elephant,0,2586_lp_dnn_0_elephant_10_n02504013_3264.png
cornet-s,3,27,NaN,elephant,elephant,0,2587_lp_dnn_0_elephant_10_n02504458_5619.png
cornet-s,3,28,NaN,elephant,elephant,0,2588_lp_dnn_0_elephant_10_n02504458_10088.png
cornet-s,3,29,NaN,elephant,elephant,0,2589_lp_dnn_0_elephant_10_n02504013_53.png
cornet-s,3,30,NaN,elephant,elephant,0,2590_lp_dnn_0_elephant_10_n02504013_3500.png
cornet-s,3,31,NaN,bicycle,bicycle,0,2591_lp_dnn_0_bicycle_10_n02835271_22355.png
cornet-s,3,32,NaN,bicycle,bicycle,0,2592_lp_dnn_0_bicycle_10_n02835271_9288.png
cornet-s,3,33,NaN,bicycle,bicycle,0,2593_lp_dnn_0_bicycle_10_n02835271_2594.png
cornet-s,3,34,NaN,bicycle,bicycle,0,2594_lp_dnn_0_bicycle_10_n02835271_3575.png
cornet-s,3,35,NaN,bicycle,bicycle,0,2595_lp_dnn_0_bicycle_10_n02835271_64.png
cornet-s,3,36,NaN,bicycle,bicycle,0,2596_lp_dnn_0_bicycle_10_n03792782_1982.png
cornet-s,3,37,NaN,bicycle,bicycle,0,2597_lp_dnn_0_bicycle_10_n03792782_13002.png
cornet-s,3,38,NaN,bicycle,bicycle,0,2598_lp_dnn_0_bicycle_10_n03792782_607.png
cornet-s,3,39,NaN,bicycle,bicycle,0,2599_lp_dnn_0_bicycle_10_n03792782_15531.png
cornet-s,3,40,NaN,bicycle,bicycle,0,2600_lp_dnn_0_bicycle_10_n03792782_7802.png
cornet-s,3,41,NaN,airplane,airplane,0,2601_lp_dnn_0_airplane_10_n02690373_7099.png
cornet-s,3,42,NaN,airplane,airplane,0,2602_lp_dnn_0_airplane_10_n02690373_8304.png
cornet-s,3,43,NaN,airplane,airplane,0,2603_lp_dnn_0_airplane_10_n02690373_8599.png
cornet-s,3,44,NaN,airplane,airplane,0,2604_lp_dnn_0_airplane_10_n02690373_693.png
cornet-s,3,45,NaN,airplane,airplane,0,2605_lp_dnn_0_airplane_10_n02690373_18111.png
cornet-s,3,46,NaN,airplane,airplane,0,2606_lp_dnn_0_airplane_10_n02690373_7530.png
cornet-s,3,47,NaN,airplane,airplane,0,2607_lp_dnn_0_airplane_10_n02690373_5524.png
cornet-s,3,48,NaN,airplane,airplane,0,2608_lp_dnn_0_airplane_10_n02690373_4358.png
cornet-s,3,49,NaN,airplane,airplane,0,2609_lp_dnn_0_airplane_10_n02690373_4201.png
cornet-s,3,50,NaN,airplane,airplane,0,2610_lp_dnn_0_airplane_10_n02690373_6697.png
cornet-s,3,51,NaN,clock,clock,0,2611_lp_dnn_0_clock_10_n02708093_1276.png
cornet-s,3,52,NaN,bottle,clock,0,2612_lp_dnn_0_clock_10_n02708093_3743.png
cornet-s,3,53,NaN,clock,clock,0,2613_lp_dnn_0_clock_10_n03196217_5137.png
cornet-s,3,54,NaN,clock,clock,0,2614_lp_dnn_0_clock_10_n04548280_3133.png
cornet-s,3,55,NaN,clock,clock,0,2615_lp_dnn_0_clock_10_n02708093_899.png
cornet-s,3,56,NaN,clock,clock,0,2616_lp_dnn_0_clock_10_n04548280_6411.png
cornet-s,3,57,NaN,clock,clock,0,2617_lp_dnn_0_clock_10_n03196217_711.png
cornet-s,3,58,NaN,clock,clock,0,2618_lp_dnn_0_clock_10_n04548280_1114.png
cornet-s,3,59,NaN,clock,clock,0,2619_lp_dnn_0_clock_10_n03196217_95.png
cornet-s,3,60,NaN,clock,clock,0,2620_lp_dnn_0_clock_10_n03196217_3215.png
cornet-s,3,61,NaN,knife,oven,0,2621_lp_dnn_0_oven_10_n04111531_892.png
cornet-s,3,62,NaN,oven,oven,0,2622_lp_dnn_0_oven_10_n04111531_9424.png
cornet-s,3,63,NaN,oven,oven,0,2623_lp_dnn_0_oven_10_n04111531_4988.png
cornet-s,3,64,NaN,oven,oven,0,2624_lp_dnn_0_oven_10_n04111531_5290.png
cornet-s,3,65,NaN,oven,oven,0,2625_lp_dnn_0_oven_10_n04111531_22120.png
cornet-s,3,66,NaN,oven,oven,0,2626_lp_dnn_0_oven_10_n04111531_9712.png
cornet-s,3,67,NaN,oven,oven,0,2627_lp_dnn_0_oven_10_n04111531_9688.png
cornet-s,3,68,NaN,oven,oven,0,2628_lp_dnn_0_oven_10_n04111531_545.png
cornet-s,3,69,NaN,oven,oven,0,2629_lp_dnn_0_oven_10_n04111531_7717.png
cornet-s,3,70,NaN,oven,oven,0,2630_lp_dnn_0_oven_10_n04111531_3353.png
cornet-s,3,71,NaN,chair,chair,0,2631_lp_dnn_0_chair_10_n04429376_16849.png
cornet-s,3,72,NaN,chair,chair,0,2632_lp_dnn_0_chair_10_n02791124_2674.png
cornet-s,3,73,NaN,chair,chair,0,2633_lp_dnn_0_chair_10_n03376595_4954.png
cornet-s,3,74,NaN,chair,chair,0,2634_lp_dnn_0_chair_10_n04429376_22828.png
cornet-s,3,75,NaN,chair,chair,0,2635_lp_dnn_0_chair_10_n04099969_54555.png
cornet-s,3,76,NaN,chair,chair,0,2636_lp_dnn_0_chair_10_n04099969_4946.png
cornet-s,3,77,NaN,chair,chair,0,2637_lp_dnn_0_chair_10_n04429376_16325.png
cornet-s,3,78,NaN,chair,chair,0,2638_lp_dnn_0_chair_10_n04099969_5730.png
cornet-s,3,79,NaN,chair,chair,0,2639_lp_dnn_0_chair_10_n04099969_15094.png
cornet-s,3,80,NaN,chair,chair,0,2640_lp_dnn_0_chair_10_n02791124_8290.png
cornet-s,3,81,NaN,bear,bear,0,2641_lp_dnn_0_bear_10_n02132136_33682.png
cornet-s,3,82,NaN,bear,bear,0,2642_lp_dnn_0_bear_10_n02134084_7871.png
cornet-s,3,83,NaN,bear,bear,0,2643_lp_dnn_0_bear_10_n02133161_610.png
cornet-s,3,84,NaN,bear,bear,0,2644_lp_dnn_0_bear_10_n02134418_5914.png
cornet-s,3,85,NaN,bear,bear,0,2645_lp_dnn_0_bear_10_n02133161_1490.png
cornet-s,3,86,NaN,bear,bear,0,2646_lp_dnn_0_bear_10_n02134084_887.png
cornet-s,3,87,NaN,bear,bear,0,2647_lp_dnn_0_bear_10_n02133161_14686.png
cornet-s,3,88,NaN,bear,bear,0,2648_lp_dnn_0_bear_10_n02134084_2623.png
cornet-s,3,89,NaN,bear,bear,0,2649_lp_dnn_0_bear_10_n02133161_911.png
cornet-s,3,90,NaN,bear,bear,0,2650_lp_dnn_0_bear_10_n02134418_3284.png
cornet-s,3,91,NaN,boat,boat,0,2651_lp_dnn_0_boat_10_n03662601_13156.png
cornet-s,3,92,NaN,boat,boat,0,2652_lp_dnn_0_boat_10_n04273569_14638.png
cornet-s,3,93,NaN,boat,boat,0,2653_lp_dnn_0_boat_10_n04612504_8407.png
cornet-s,3,94,NaN,boat,boat,0,2654_lp_dnn_0_boat_10_n02951358_32163.png
cornet-s,3,95,NaN,boat,boat,0,2655_lp_dnn_0_boat_10_n03662601_27532.png
cornet-s,3,96,NaN,boat,boat,0,2656_lp_dnn_0_boat_10_n03662601_27960.png
cornet-s,3,97,NaN,boat,boat,0,2657_lp_dnn_0_boat_10_n04612504_7336.png
cornet-s,3,98,NaN,airplane,boat,0,2658_lp_dnn_0_boat_10_n03662601_23578.png
cornet-s,3,99,NaN,boat,boat,0,2659_lp_dnn_0_boat_10_n03662601_6340.png
cornet-s,3,100,NaN,boat,boat,0,2660_lp_dnn_0_boat_10_n03344393_5837.png
cornet-s,3,101,NaN,cat,cat,0,2661_lp_dnn_0_cat_10_n02123045_5241.png
cornet-s,3,102,NaN,cat,cat,0,2662_lp_dnn_0_cat_10_n02123045_7004.png
cornet-s,3,103,NaN,cat,cat,0,2663_lp_dnn_0_cat_10_n02125311_31231.png
cornet-s,3,104,NaN,cat,cat,0,2664_lp_dnn_0_cat_10_n02125311_2212.png
cornet-s,3,105,NaN,cat,cat,0,2665_lp_dnn_0_cat_10_n02123045_2929.png
cornet-s,3,106,NaN,cat,cat,0,2666_lp_dnn_0_cat_10_n02123045_3593.png
cornet-s,3,107,NaN,cat,cat,0,2667_lp_dnn_0_cat_10_n02124075_10880.png
cornet-s,3,108,NaN,dog,cat,0,2668_lp_dnn_0_cat_10_n02123394_1196.png
cornet-s,3,109,NaN,cat,cat,0,2669_lp_dnn_0_cat_10_n02125311_46546.png
cornet-s,3,110,NaN,cat,cat,0,2670_lp_dnn_0_cat_10_n02123597_3770.png
cornet-s,3,111,NaN,chair,bottle,0,2671_lp_dnn_0_bottle_10_n04557648_1586.png
cornet-s,3,112,NaN,bottle,bottle,0,2672_lp_dnn_0_bottle_10_n03937543_2105.png
cornet-s,3,113,NaN,bottle,bottle,0,2673_lp_dnn_0_bottle_10_n02823428_9155.png
cornet-s,3,114,NaN,bottle,bottle,0,2674_lp_dnn_0_bottle_10_n02823428_3619.png
cornet-s,3,115,NaN,bottle,bottle,0,2675_lp_dnn_0_bottle_10_n03937543_7281.png
cornet-s,3,116,NaN,bottle,bottle,0,2676_lp_dnn_0_bottle_10_n03983396_16710.png
cornet-s,3,117,NaN,bottle,bottle,0,2677_lp_dnn_0_bottle_10_n04557648_11539.png
cornet-s,3,118,NaN,bottle,bottle,0,2678_lp_dnn_0_bottle_10_n04560804_25810.png
cornet-s,3,119,NaN,bottle,bottle,0,2679_lp_dnn_0_bottle_10_n03983396_710.png
cornet-s,3,120,NaN,bottle,bottle,0,2680_lp_dnn_0_bottle_10_n04560804_11482.png
cornet-s,3,121,NaN,truck,truck,0,2681_lp_dnn_0_truck_10_n04467665_51397.png
cornet-s,3,122,NaN,truck,truck,0,2682_lp_dnn_0_truck_10_n04467665_23112.png
cornet-s,3,123,NaN,truck,truck,0,2683_lp_dnn_0_truck_10_n04467665_51005.png
cornet-s,3,124,NaN,truck,truck,0,2684_lp_dnn_0_truck_10_n03417042_19447.png
cornet-s,3,125,NaN,truck,truck,0,2685_lp_dnn_0_truck_10_n03417042_26971.png
cornet-s,3,126,NaN,truck,truck,0,2686_lp_dnn_0_truck_10_n03796401_28309.png
cornet-s,3,127,NaN,knife,truck,0,2687_lp_dnn_0_truck_10_n03417042_2812.png
cornet-s,3,128,NaN,truck,truck,0,2688_lp_dnn_0_truck_10_n03417042_3024.png
cornet-s,3,129,NaN,truck,truck,0,2689_lp_dnn_0_truck_10_n03796401_1556.png
cornet-s,3,130,NaN,truck,truck,0,2690_lp_dnn_0_truck_10_n04467665_2505.png
cornet-s,3,131,NaN,car,car,0,2691_lp_dnn_0_car_10_n02814533_40393.png
cornet-s,3,132,NaN,car,car,0,2692_lp_dnn_0_car_10_n02814533_2560.png
cornet-s,3,133,NaN,car,car,0,2693_lp_dnn_0_car_10_n02814533_14121.png
cornet-s,3,134,NaN,car,car,0,2694_lp_dnn_0_car_10_n03100240_9569.png
cornet-s,3,135,NaN,car,car,0,2695_lp_dnn_0_car_10_n02814533_37629.png
cornet-s,3,136,NaN,car,car,0,2696_lp_dnn_0_car_10_n03100240_9639.png
cornet-s,3,137,NaN,car,car,0,2697_lp_dnn_0_car_10_n04285008_7243.png
cornet-s,3,138,NaN,car,car,0,2698_lp_dnn_0_car_10_n04285008_8784.png
cornet-s,3,139,NaN,car,car,0,2699_lp_dnn_0_car_10_n02814533_38313.png
cornet-s,3,140,NaN,car,car,0,2700_lp_dnn_0_car_10_n04285008_8275.png
cornet-s,3,141,NaN,bird,bird,0,2701_lp_dnn_0_bird_10_n01855032_6580.png
cornet-s,3,142,NaN,bird,bird,0,2702_lp_dnn_0_bird_10_n01796340_2447.png
cornet-s,3,143,NaN,bird,bird,0,2703_lp_dnn_0_bird_10_n02028035_9119.png
cornet-s,3,144,NaN,bird,bird,0,2704_lp_dnn_0_bird_10_n02013706_1438.png
cornet-s,3,145,NaN,bird,bird,0,2705_lp_dnn_0_bird_10_n02011460_2565.png
cornet-s,3,146,NaN,bird,bird,0,2706_lp_dnn_0_bird_10_n01537544_23786.png
cornet-s,3,147,NaN,bird,bird,0,2707_lp_dnn_0_bird_10_n02056570_7734.png
cornet-s,3,148,NaN,bird,bird,0,2708_lp_dnn_0_bird_10_n01797886_4373.png
cornet-s,3,149,NaN,bird,bird,0,2709_lp_dnn_0_bird_10_n01833805_9125.png
cornet-s,3,150,NaN,bird,bird,0,2710_lp_dnn_0_bird_10_n01614925_4703.png
cornet-s,3,151,NaN,dog,dog,0,2711_lp_dnn_0_dog_10_n02097047_2245.png
cornet-s,3,152,NaN,dog,dog,0,2712_lp_dnn_0_dog_10_n02106382_183.png
cornet-s,3,153,NaN,dog,dog,0,2713_lp_dnn_0_dog_10_n02097658_7071.png
cornet-s,3,154,NaN,dog,dog,0,2714_lp_dnn_0_dog_10_n02113799_1435.png
cornet-s,3,155,NaN,dog,dog,0,2715_lp_dnn_0_dog_10_n02099601_7546.png
cornet-s,3,156,NaN,dog,dog,0,2716_lp_dnn_0_dog_10_n02091032_839.png
cornet-s,3,157,NaN,dog,dog,0,2717_lp_dnn_0_dog_10_n02093428_3212.png
cornet-s,3,158,NaN,dog,dog,0,2718_lp_dnn_0_dog_10_n02106550_6786.png
cornet-s,3,159,NaN,dog,dog,0,2719_lp_dnn_0_dog_10_n02098286_3385.png
cornet-s,3,160,NaN,dog,dog,0,2720_lp_dnn_0_dog_10_n02100877_1321.png
cornet-s,3,161,NaN,knife,knife,1,2721_lp_dnn_1_knife_10_n03041632_8051.png
cornet-s,3,162,NaN,keyboard,knife,1,2722_lp_dnn_1_knife_10_n03041632_15299.png
cornet-s,3,163,NaN,knife,knife,1,2723_lp_dnn_1_knife_10_n03041632_45636.png
cornet-s,3,164,NaN,knife,knife,1,2724_lp_dnn_1_knife_10_n03041632_55140.png
cornet-s,3,165,NaN,knife,knife,1,2725_lp_dnn_1_knife_10_n03041632_33075.png
cornet-s,3,166,NaN,knife,knife,1,2726_lp_dnn_1_knife_10_n03041632_28135.png
cornet-s,3,167,NaN,knife,knife,1,2727_lp_dnn_1_knife_10_n03041632_21723.png
cornet-s,3,168,NaN,knife,knife,1,2728_lp_dnn_1_knife_10_n03041632_36806.png
cornet-s,3,169,NaN,knife,knife,1,2729_lp_dnn_1_knife_10_n03041632_10263.png
cornet-s,3,170,NaN,clock,knife,1,2730_lp_dnn_1_knife_10_n03041632_62810.png
cornet-s,3,171,NaN,keyboard,keyboard,1,2731_lp_dnn_1_keyboard_10_n03085013_24129.png
cornet-s,3,172,NaN,keyboard,keyboard,1,2732_lp_dnn_1_keyboard_10_n03085013_24099.png
cornet-s,3,173,NaN,keyboard,keyboard,1,2733_lp_dnn_1_keyboard_10_n04505470_1988.png
cornet-s,3,174,NaN,keyboard,keyboard,1,2734_lp_dnn_1_keyboard_10_n03085013_20584.png
cornet-s,3,175,NaN,keyboard,keyboard,1,2735_lp_dnn_1_keyboard_10_n03085013_23115.png
cornet-s,3,176,NaN,keyboard,keyboard,1,2736_lp_dnn_1_keyboard_10_n03085013_23561.png
cornet-s,3,177,NaN,keyboard,keyboard,1,2737_lp_dnn_1_keyboard_10_n03085013_18619.png
cornet-s,3,178,NaN,keyboard,keyboard,1,2738_lp_dnn_1_keyboard_10_n03085013_24615.png
cornet-s,3,179,NaN,keyboard,keyboard,1,2739_lp_dnn_1_keyboard_10_n03085013_3920.png
cornet-s,3,180,NaN,keyboard,keyboard,1,2740_lp_dnn_1_keyboard_10_n03085013_17452.png
cornet-s,3,181,NaN,elephant,elephant,1,2741_lp_dnn_1_elephant_10_n02504458_5641.png
cornet-s,3,182,NaN,elephant,elephant,1,2742_lp_dnn_1_elephant_10_n02504458_485.png
cornet-s,3,183,NaN,elephant,elephant,1,2743_lp_dnn_1_elephant_10_n02504458_4206.png
cornet-s,3,184,NaN,elephant,elephant,1,2744_lp_dnn_1_elephant_10_n02504458_4849.png
cornet-s,3,185,NaN,cat,elephant,1,2745_lp_dnn_1_elephant_10_n02504013_7064.png
cornet-s,3,186,NaN,elephant,elephant,1,2746_lp_dnn_1_elephant_10_n02504013_19236.png
cornet-s,3,187,NaN,elephant,elephant,1,2747_lp_dnn_1_elephant_10_n02504458_6931.png
cornet-s,3,188,NaN,elephant,elephant,1,2748_lp_dnn_1_elephant_10_n02504458_5055.png
cornet-s,3,189,NaN,elephant,elephant,1,2749_lp_dnn_1_elephant_10_n02504013_2859.png
cornet-s,3,190,NaN,elephant,elephant,1,2750_lp_dnn_1_elephant_10_n02504458_3878.png
cornet-s,3,191,NaN,bicycle,bicycle,1,2751_lp_dnn_1_bicycle_10_n02835271_10668.png
cornet-s,3,192,NaN,bicycle,bicycle,1,2752_lp_dnn_1_bicycle_10_n02835271_14097.png
cornet-s,3,193,NaN,bicycle,bicycle,1,2753_lp_dnn_1_bicycle_10_n03792782_19111.png
cornet-s,3,194,NaN,bicycle,bicycle,1,2754_lp_dnn_1_bicycle_10_n02835271_317.png
cornet-s,3,195,NaN,bicycle,bicycle,1,2755_lp_dnn_1_bicycle_10_n03792782_15932.png
cornet-s,3,196,NaN,bicycle,bicycle,1,2756_lp_dnn_1_bicycle_10_n03792782_14931.png
cornet-s,3,197,NaN,bicycle,bicycle,1,2757_lp_dnn_1_bicycle_10_n03792782_4682.png
cornet-s,3,198,NaN,bicycle,bicycle,1,2758_lp_dnn_1_bicycle_10_n03792782_3176.png
cornet-s,3,199,NaN,bicycle,bicycle,1,2759_lp_dnn_1_bicycle_10_n02835271_9306.png
cornet-s,3,200,NaN,bicycle,bicycle,1,2760_lp_dnn_1_bicycle_10_n02835271_8098.png
cornet-s,3,201,NaN,airplane,airplane,1,2761_lp_dnn_1_airplane_10_n02690373_18506.png
cornet-s,3,202,NaN,airplane,airplane,1,2762_lp_dnn_1_airplane_10_n02690373_4225.png
cornet-s,3,203,NaN,airplane,airplane,1,2763_lp_dnn_1_airplane_10_n02690373_18936.png
cornet-s,3,204,NaN,airplane,airplane,1,2764_lp_dnn_1_airplane_10_n02690373_1295.png
cornet-s,3,205,NaN,airplane,airplane,1,2765_lp_dnn_1_airplane_10_n02690373_1563.png
cornet-s,3,206,NaN,airplane,airplane,1,2766_lp_dnn_1_airplane_10_n02690373_2605.png
cornet-s,3,207,NaN,airplane,airplane,1,2767_lp_dnn_1_airplane_10_n02690373_4233.png
cornet-s,3,208,NaN,airplane,airplane,1,2768_lp_dnn_1_airplane_10_n02690373_10228.png
cornet-s,3,209,NaN,airplane,airplane,1,2769_lp_dnn_1_airplane_10_n02690373_5141.png
cornet-s,3,210,NaN,airplane,airplane,1,2770_lp_dnn_1_airplane_10_n02690373_19666.png
cornet-s,3,211,NaN,chair,clock,1,2771_lp_dnn_1_clock_10_n03196217_276.png
cornet-s,3,212,NaN,clock,clock,1,2772_lp_dnn_1_clock_10_n04548280_3292.png
cornet-s,3,213,NaN,clock,clock,1,2773_lp_dnn_1_clock_10_n04548280_299.png
cornet-s,3,214,NaN,clock,clock,1,2774_lp_dnn_1_clock_10_n04548280_1323.png
cornet-s,3,215,NaN,clock,clock,1,2775_lp_dnn_1_clock_10_n02708093_628.png
cornet-s,3,216,NaN,clock,clock,1,2776_lp_dnn_1_clock_10_n02708093_1135.png
cornet-s,3,217,NaN,clock,clock,1,2777_lp_dnn_1_clock_10_n04548280_5257.png
cornet-s,3,218,NaN,bicycle,clock,1,2778_lp_dnn_1_clock_10_n03196217_1406.png
cornet-s,3,219,NaN,clock,clock,1,2779_lp_dnn_1_clock_10_n04548280_6388.png
cornet-s,3,220,NaN,clock,clock,1,2780_lp_dnn_1_clock_10_n03196217_11614.png
cornet-s,3,221,NaN,chair,oven,1,2781_lp_dnn_1_oven_10_n04111531_10710.png
cornet-s,3,222,NaN,oven,oven,1,2782_lp_dnn_1_oven_10_n04111531_1229.png
cornet-s,3,223,NaN,oven,oven,1,2783_lp_dnn_1_oven_10_n04111531_5549.png
cornet-s,3,224,NaN,oven,oven,1,2784_lp_dnn_1_oven_10_n04111531_12080.png
cornet-s,3,225,NaN,oven,oven,1,2785_lp_dnn_1_oven_10_n04111531_8181.png
cornet-s,3,226,NaN,knife,oven,1,2786_lp_dnn_1_oven_10_n04111531_13809.png
cornet-s,3,227,NaN,oven,oven,1,2787_lp_dnn_1_oven_10_n04111531_5328.png
cornet-s,3,228,NaN,oven,oven,1,2788_lp_dnn_1_oven_10_n04111531_11405.png
cornet-s,3,229,NaN,oven,oven,1,2789_lp_dnn_1_oven_10_n04111531_15649.png
cornet-s,3,230,NaN,oven,oven,1,2790_lp_dnn_1_oven_10_n04111531_10476.png
cornet-s,3,231,NaN,chair,chair,1,2791_lp_dnn_1_chair_10_n02791124_3631.png
cornet-s,3,232,NaN,chair,chair,1,2792_lp_dnn_1_chair_10_n04099969_5140.png
cornet-s,3,233,NaN,chair,chair,1,2793_lp_dnn_1_chair_10_n04429376_15286.png
cornet-s,3,234,NaN,chair,chair,1,2794_lp_dnn_1_chair_10_n03376595_17704.png
cornet-s,3,235,NaN,chair,chair,1,2795_lp_dnn_1_chair_10_n04429376_5427.png
cornet-s,3,236,NaN,chair,chair,1,2796_lp_dnn_1_chair_10_n03376595_17854.png
cornet-s,3,237,NaN,chair,chair,1,2797_lp_dnn_1_chair_10_n02791124_5617.png
cornet-s,3,238,NaN,chair,chair,1,2798_lp_dnn_1_chair_10_n04099969_6828.png
cornet-s,3,239,NaN,chair,chair,1,2799_lp_dnn_1_chair_10_n03376595_6596.png
cornet-s,3,240,NaN,bicycle,chair,1,2800_lp_dnn_1_chair_10_n04429376_21738.png
cornet-s,3,241,NaN,bear,bear,1,2801_lp_dnn_1_bear_10_n02132136_19300.png
cornet-s,3,242,NaN,bear,bear,1,2802_lp_dnn_1_bear_10_n02134084_1022.png
cornet-s,3,243,NaN,bear,bear,1,2803_lp_dnn_1_bear_10_n02134084_7868.png
cornet-s,3,244,NaN,bear,bear,1,2804_lp_dnn_1_bear_10_n02132136_9358.png
cornet-s,3,245,NaN,bear,bear,1,2805_lp_dnn_1_bear_10_n02134084_1111.png
cornet-s,3,246,NaN,bear,bear,1,2806_lp_dnn_1_bear_10_n02134418_545.png
cornet-s,3,247,NaN,bear,bear,1,2807_lp_dnn_1_bear_10_n02132136_7290.png
cornet-s,3,248,NaN,bear,bear,1,2808_lp_dnn_1_bear_10_n02134418_2943.png
cornet-s,3,249,NaN,bear,bear,1,2809_lp_dnn_1_bear_10_n02134418_872.png
cornet-s,3,250,NaN,bear,bear,1,2810_lp_dnn_1_bear_10_n02134084_6725.png
cornet-s,3,251,NaN,clock,boat,1,2811_lp_dnn_1_boat_10_n03662601_2584.png
cornet-s,3,252,NaN,boat,boat,1,2812_lp_dnn_1_boat_10_n03344393_5806.png
cornet-s,3,253,NaN,boat,boat,1,2813_lp_dnn_1_boat_10_n03662601_10263.png
cornet-s,3,254,NaN,boat,boat,1,2814_lp_dnn_1_boat_10_n03662601_32433.png
cornet-s,3,255,NaN,boat,boat,1,2815_lp_dnn_1_boat_10_n02951358_26580.png
cornet-s,3,256,NaN,boat,boat,1,2816_lp_dnn_1_boat_10_n03344393_10830.png
cornet-s,3,257,NaN,boat,boat,1,2817_lp_dnn_1_boat_10_n04612504_18536.png
cornet-s,3,258,NaN,boat,boat,1,2818_lp_dnn_1_boat_10_n03344393_8991.png
cornet-s,3,259,NaN,boat,boat,1,2819_lp_dnn_1_boat_10_n04273569_2704.png
cornet-s,3,260,NaN,boat,boat,1,2820_lp_dnn_1_boat_10_n02951358_4985.png
cornet-s,3,261,NaN,cat,cat,1,2821_lp_dnn_1_cat_10_n02124075_3257.png
cornet-s,3,262,NaN,cat,cat,1,2822_lp_dnn_1_cat_10_n02125311_494.png
cornet-s,3,263,NaN,cat,cat,1,2823_lp_dnn_1_cat_10_n02123159_8198.png
cornet-s,3,264,NaN,cat,cat,1,2824_lp_dnn_1_cat_10_n02123394_1718.png
cornet-s,3,265,NaN,cat,cat,1,2825_lp_dnn_1_cat_10_n02123394_3166.png
cornet-s,3,266,NaN,cat,cat,1,2826_lp_dnn_1_cat_10_n02124075_2248.png
cornet-s,3,267,NaN,cat,cat,1,2827_lp_dnn_1_cat_10_n02124075_7973.png
cornet-s,3,268,NaN,cat,cat,1,2828_lp_dnn_1_cat_10_n02123394_7848.png
cornet-s,3,269,NaN,cat,cat,1,2829_lp_dnn_1_cat_10_n02125311_21909.png
cornet-s,3,270,NaN,cat,cat,1,2830_lp_dnn_1_cat_10_n02123045_569.png
cornet-s,3,271,NaN,oven,bottle,1,2831_lp_dnn_1_bottle_10_n04557648_11339.png
cornet-s,3,272,NaN,bottle,bottle,1,2832_lp_dnn_1_bottle_10_n03983396_3144.png
cornet-s,3,273,NaN,bottle,bottle,1,2833_lp_dnn_1_bottle_10_n02823428_6767.png
cornet-s,3,274,NaN,bicycle,bottle,1,2834_lp_dnn_1_bottle_10_n04557648_1955.png
cornet-s,3,275,NaN,bottle,bottle,1,2835_lp_dnn_1_bottle_10_n03983396_4066.png
cornet-s,3,276,NaN,bottle,bottle,1,2836_lp_dnn_1_bottle_10_n04560804_15642.png
cornet-s,3,277,NaN,bottle,bottle,1,2837_lp_dnn_1_bottle_10_n03937543_1501.png
cornet-s,3,278,NaN,keyboard,bottle,1,2838_lp_dnn_1_bottle_10_n03937543_396.png
cornet-s,3,279,NaN,bottle,bottle,1,2839_lp_dnn_1_bottle_10_n04591713_6152.png
cornet-s,3,280,NaN,bottle,bottle,1,2840_lp_dnn_1_bottle_10_n04557648_3574.png
cornet-s,3,281,NaN,truck,truck,1,2841_lp_dnn_1_truck_10_n03796401_28732.png
cornet-s,3,282,NaN,truck,truck,1,2842_lp_dnn_1_truck_10_n04467665_1054.png
cornet-s,3,283,NaN,truck,truck,1,2843_lp_dnn_1_truck_10_n03417042_15893.png
cornet-s,3,284,NaN,truck,truck,1,2844_lp_dnn_1_truck_10_n03417042_20123.png
cornet-s,3,285,NaN,truck,truck,1,2845_lp_dnn_1_truck_10_n03796401_7140.png
cornet-s,3,286,NaN,truck,truck,1,2846_lp_dnn_1_truck_10_n03417042_28552.png
cornet-s,3,287,NaN,truck,truck,1,2847_lp_dnn_1_truck_10_n04467665_49132.png
cornet-s,3,288,NaN,truck,truck,1,2848_lp_dnn_1_truck_10_n03417042_8145.png
cornet-s,3,289,NaN,truck,truck,1,2849_lp_dnn_1_truck_10_n04467665_63662.png
cornet-s,3,290,NaN,truck,truck,1,2850_lp_dnn_1_truck_10_n04467665_64792.png
cornet-s,3,291,NaN,car,car,1,2851_lp_dnn_1_car_10_n04285008_16747.png
cornet-s,3,292,NaN,truck,car,1,2852_lp_dnn_1_car_10_n02814533_25767.png
cornet-s,3,293,NaN,car,car,1,2853_lp_dnn_1_car_10_n03100240_5591.png
cornet-s,3,294,NaN,car,car,1,2854_lp_dnn_1_car_10_n04285008_9500.png
cornet-s,3,295,NaN,car,car,1,2855_lp_dnn_1_car_10_n03100240_18815.png
cornet-s,3,296,NaN,car,car,1,2856_lp_dnn_1_car_10_n02814533_44083.png
cornet-s,3,297,NaN,car,car,1,2857_lp_dnn_1_car_10_n04285008_12192.png
cornet-s,3,298,NaN,car,car,1,2858_lp_dnn_1_car_10_n04285008_14681.png
cornet-s,3,299,NaN,car,car,1,2859_lp_dnn_1_car_10_n02814533_68668.png
cornet-s,3,300,NaN,car,car,1,2860_lp_dnn_1_car_10_n03100240_14168.png
cornet-s,3,301,NaN,bird,bird,1,2861_lp_dnn_1_bird_10_n01797886_6752.png
cornet-s,3,302,NaN,bird,bird,1,2862_lp_dnn_1_bird_10_n01855672_2535.png
cornet-s,3,303,NaN,bird,bird,1,2863_lp_dnn_1_bird_10_n01514859_4771.png
cornet-s,3,304,NaN,bird,bird,1,2864_lp_dnn_1_bird_10_n02002556_7020.png
cornet-s,3,305,NaN,bird,bird,1,2865_lp_dnn_1_bird_10_n01614925_6539.png
cornet-s,3,306,NaN,bird,bird,1,2866_lp_dnn_1_bird_10_n02006656_7169.png
cornet-s,3,307,NaN,bird,bird,1,2867_lp_dnn_1_bird_10_n01855032_4441.png
cornet-s,3,308,NaN,bird,bird,1,2868_lp_dnn_1_bird_10_n01616318_3461.png
cornet-s,3,309,NaN,bird,bird,1,2869_lp_dnn_1_bird_10_n01818515_14598.png
cornet-s,3,310,NaN,bird,bird,1,2870_lp_dnn_1_bird_10_n01560419_1121.png
cornet-s,3,311,NaN,dog,dog,1,2871_lp_dnn_1_dog_10_n02105056_5638.png
cornet-s,3,312,NaN,dog,dog,1,2872_lp_dnn_1_dog_10_n02098286_3958.png
cornet-s,3,313,NaN,knife,dog,1,2873_lp_dnn_1_dog_10_n02108915_2558.png
cornet-s,3,314,NaN,dog,dog,1,2874_lp_dnn_1_dog_10_n02096437_403.png
cornet-s,3,315,NaN,dog,dog,1,2875_lp_dnn_1_dog_10_n02099267_6075.png
cornet-s,3,316,NaN,dog,dog,1,2876_lp_dnn_1_dog_10_n02105056_1071.png
cornet-s,3,317,NaN,dog,dog,1,2877_lp_dnn_1_dog_10_n02106662_1111.png
cornet-s,3,318,NaN,dog,dog,1,2878_lp_dnn_1_dog_10_n02112018_6809.png
cornet-s,3,319,NaN,dog,dog,1,2879_lp_dnn_1_dog_10_n02109047_17307.png
cornet-s,3,320,NaN,dog,dog,1,2880_lp_dnn_1_dog_10_n02105855_14967.png
cornet-s,3,321,NaN,knife,knife,3,2881_lp_dnn_3_knife_10_n03041632_99912.png
cornet-s,3,322,NaN,keyboard,knife,3,2882_lp_dnn_3_knife_10_n03041632_4590.png
cornet-s,3,323,NaN,keyboard,knife,3,2883_lp_dnn_3_knife_10_n03041632_92063.png
cornet-s,3,324,NaN,knife,knife,3,2884_lp_dnn_3_knife_10_n03041632_2644.png
cornet-s,3,325,NaN,keyboard,knife,3,2885_lp_dnn_3_knife_10_n03041632_18601.png
cornet-s,3,326,NaN,keyboard,knife,3,2886_lp_dnn_3_knife_10_n03041632_29801.png
cornet-s,3,327,NaN,clock,knife,3,2887_lp_dnn_3_knife_10_n03041632_23667.png
cornet-s,3,328,NaN,knife,knife,3,2888_lp_dnn_3_knife_10_n03041632_7116.png
cornet-s,3,329,NaN,knife,knife,3,2889_lp_dnn_3_knife_10_n03041632_50996.png
cornet-s,3,330,NaN,knife,knife,3,2890_lp_dnn_3_knife_10_n03041632_39836.png
cornet-s,3,331,NaN,keyboard,keyboard,3,2891_lp_dnn_3_keyboard_10_n03085013_19362.png
cornet-s,3,332,NaN,keyboard,keyboard,3,2892_lp_dnn_3_keyboard_10_n03085013_6968.png
cornet-s,3,333,NaN,clock,keyboard,3,2893_lp_dnn_3_keyboard_10_n03085013_19581.png
cornet-s,3,334,NaN,keyboard,keyboard,3,2894_lp_dnn_3_keyboard_10_n03085013_13083.png
cornet-s,3,335,NaN,keyboard,keyboard,3,2895_lp_dnn_3_keyboard_10_n03085013_1797.png
cornet-s,3,336,NaN,keyboard,keyboard,3,2896_lp_dnn_3_keyboard_10_n04505470_2737.png
cornet-s,3,337,NaN,keyboard,keyboard,3,2897_lp_dnn_3_keyboard_10_n03085013_23571.png
cornet-s,3,338,NaN,keyboard,keyboard,3,2898_lp_dnn_3_keyboard_10_n03085013_18621.png
cornet-s,3,339,NaN,keyboard,keyboard,3,2899_lp_dnn_3_keyboard_10_n03085013_19161.png
cornet-s,3,340,NaN,keyboard,keyboard,3,2900_lp_dnn_3_keyboard_10_n04505470_4109.png
cornet-s,3,341,NaN,elephant,elephant,3,2901_lp_dnn_3_elephant_10_n02504013_4995.png
cornet-s,3,342,NaN,elephant,elephant,3,2902_lp_dnn_3_elephant_10_n02504458_2944.png
cornet-s,3,343,NaN,bottle,elephant,3,2903_lp_dnn_3_elephant_10_n02504013_5969.png
cornet-s,3,344,NaN,clock,elephant,3,2904_lp_dnn_3_elephant_10_n02504013_6097.png
cornet-s,3,345,NaN,elephant,elephant,3,2905_lp_dnn_3_elephant_10_n02504458_4322.png
cornet-s,3,346,NaN,elephant,elephant,3,2906_lp_dnn_3_elephant_10_n02504013_459.png
cornet-s,3,347,NaN,elephant,elephant,3,2907_lp_dnn_3_elephant_10_n02504013_947.png
cornet-s,3,348,NaN,dog,elephant,3,2908_lp_dnn_3_elephant_10_n02504013_2075.png
cornet-s,3,349,NaN,keyboard,elephant,3,2909_lp_dnn_3_elephant_10_n02504013_644.png
cornet-s,3,350,NaN,bicycle,elephant,3,2910_lp_dnn_3_elephant_10_n02504013_2984.png
cornet-s,3,351,NaN,bicycle,bicycle,3,2911_lp_dnn_3_bicycle_10_n03792782_32766.png
cornet-s,3,352,NaN,bicycle,bicycle,3,2912_lp_dnn_3_bicycle_10_n03792782_26210.png
cornet-s,3,353,NaN,truck,bicycle,3,2913_lp_dnn_3_bicycle_10_n02835271_7922.png
cornet-s,3,354,NaN,bottle,bicycle,3,2914_lp_dnn_3_bicycle_10_n02835271_508.png
cornet-s,3,355,NaN,bicycle,bicycle,3,2915_lp_dnn_3_bicycle_10_n03792782_892.png
cornet-s,3,356,NaN,bicycle,bicycle,3,2916_lp_dnn_3_bicycle_10_n02835271_5354.png
cornet-s,3,357,NaN,bicycle,bicycle,3,2917_lp_dnn_3_bicycle_10_n03792782_12433.png
cornet-s,3,358,NaN,bicycle,bicycle,3,2918_lp_dnn_3_bicycle_10_n03792782_2701.png
cornet-s,3,359,NaN,keyboard,bicycle,3,2919_lp_dnn_3_bicycle_10_n03792782_50646.png
cornet-s,3,360,NaN,bicycle,bicycle,3,2920_lp_dnn_3_bicycle_10_n02835271_14544.png
cornet-s,3,361,NaN,airplane,airplane,3,2921_lp_dnn_3_airplane_10_n02690373_9324.png
cornet-s,3,362,NaN,clock,airplane,3,2922_lp_dnn_3_airplane_10_n02690373_1547.png
cornet-s,3,363,NaN,airplane,airplane,3,2923_lp_dnn_3_airplane_10_n02690373_6872.png
cornet-s,3,364,NaN,airplane,airplane,3,2924_lp_dnn_3_airplane_10_n02690373_15411.png
cornet-s,3,365,NaN,airplane,airplane,3,2925_lp_dnn_3_airplane_10_n02690373_9849.png
cornet-s,3,366,NaN,airplane,airplane,3,2926_lp_dnn_3_airplane_10_n02690373_15472.png
cornet-s,3,367,NaN,airplane,airplane,3,2927_lp_dnn_3_airplane_10_n02690373_18383.png
cornet-s,3,368,NaN,airplane,airplane,3,2928_lp_dnn_3_airplane_10_n02690373_6096.png
cornet-s,3,369,NaN,airplane,airplane,3,2929_lp_dnn_3_airplane_10_n02690373_7192.png
cornet-s,3,370,NaN,airplane,airplane,3,2930_lp_dnn_3_airplane_10_n02690373_1909.png
cornet-s,3,371,NaN,clock,clock,3,2931_lp_dnn_3_clock_10_n02708093_596.png
cornet-s,3,372,NaN,clock,clock,3,2932_lp_dnn_3_clock_10_n04548280_5030.png
cornet-s,3,373,NaN,truck,clock,3,2933_lp_dnn_3_clock_10_n04548280_8083.png
cornet-s,3,374,NaN,clock,clock,3,2934_lp_dnn_3_clock_10_n04548280_2589.png
cornet-s,3,375,NaN,clock,clock,3,2935_lp_dnn_3_clock_10_n02708093_3688.png
cornet-s,3,376,NaN,clock,clock,3,2936_lp_dnn_3_clock_10_n02708093_5274.png
cornet-s,3,377,NaN,clock,clock,3,2937_lp_dnn_3_clock_10_n04548280_6022.png
cornet-s,3,378,NaN,clock,clock,3,2938_lp_dnn_3_clock_10_n04548280_260.png
cornet-s,3,379,NaN,clock,clock,3,2939_lp_dnn_3_clock_10_n03196217_3695.png
cornet-s,3,380,NaN,clock,clock,3,2940_lp_dnn_3_clock_10_n04548280_3563.png
cornet-s,3,381,NaN,oven,oven,3,2941_lp_dnn_3_oven_10_n04111531_11225.png
cornet-s,3,382,NaN,oven,oven,3,2942_lp_dnn_3_oven_10_n04111531_9041.png
cornet-s,3,383,NaN,truck,oven,3,2943_lp_dnn_3_oven_10_n04111531_7252.png
cornet-s,3,384,NaN,oven,oven,3,2944_lp_dnn_3_oven_10_n04111531_15317.png
cornet-s,3,385,NaN,bottle,oven,3,2945_lp_dnn_3_oven_10_n04111531_13822.png
cornet-s,3,386,NaN,keyboard,oven,3,2946_lp_dnn_3_oven_10_n04111531_3159.png
cornet-s,3,387,NaN,oven,oven,3,2947_lp_dnn_3_oven_10_n04111531_16708.png
cornet-s,3,388,NaN,oven,oven,3,2948_lp_dnn_3_oven_10_n04111531_15912.png
cornet-s,3,389,NaN,oven,oven,3,2949_lp_dnn_3_oven_10_n04111531_1826.png
cornet-s,3,390,NaN,knife,oven,3,2950_lp_dnn_3_oven_10_n04111531_3202.png
cornet-s,3,391,NaN,chair,chair,3,2951_lp_dnn_3_chair_10_n02791124_8056.png
cornet-s,3,392,NaN,oven,chair,3,2952_lp_dnn_3_chair_10_n02791124_4942.png
cornet-s,3,393,NaN,chair,chair,3,2953_lp_dnn_3_chair_10_n02791124_257.png
cornet-s,3,394,NaN,chair,chair,3,2954_lp_dnn_3_chair_10_n04099969_17424.png
cornet-s,3,395,NaN,chair,chair,3,2955_lp_dnn_3_chair_10_n03376595_6333.png
cornet-s,3,396,NaN,chair,chair,3,2956_lp_dnn_3_chair_10_n04099969_5434.png
cornet-s,3,397,NaN,oven,chair,3,2957_lp_dnn_3_chair_10_n04099969_15523.png
cornet-s,3,398,NaN,chair,chair,3,2958_lp_dnn_3_chair_10_n02791124_9616.png
cornet-s,3,399,NaN,oven,chair,3,2959_lp_dnn_3_chair_10_n02791124_3271.png
cornet-s,3,400,NaN,chair,chair,3,2960_lp_dnn_3_chair_10_n03376595_3183.png
cornet-s,3,401,NaN,bear,bear,3,2961_lp_dnn_3_bear_10_n02134084_27144.png
cornet-s,3,402,NaN,bear,bear,3,2962_lp_dnn_3_bear_10_n02134084_189.png
cornet-s,3,403,NaN,bear,bear,3,2963_lp_dnn_3_bear_10_n02132136_1391.png
cornet-s,3,404,NaN,bear,bear,3,2964_lp_dnn_3_bear_10_n02134084_3871.png
cornet-s,3,405,NaN,bear,bear,3,2965_lp_dnn_3_bear_10_n02134418_4918.png
cornet-s,3,406,NaN,bear,bear,3,2966_lp_dnn_3_bear_10_n02132136_17777.png
cornet-s,3,407,NaN,dog,bear,3,2967_lp_dnn_3_bear_10_n02133161_823.png
cornet-s,3,408,NaN,bear,bear,3,2968_lp_dnn_3_bear_10_n02132136_1499.png
cornet-s,3,409,NaN,bear,bear,3,2969_lp_dnn_3_bear_10_n02133161_2209.png
cornet-s,3,410,NaN,dog,bear,3,2970_lp_dnn_3_bear_10_n02134084_737.png
cornet-s,3,411,NaN,boat,boat,3,2971_lp_dnn_3_boat_10_n04273569_3770.png
cornet-s,3,412,NaN,airplane,boat,3,2972_lp_dnn_3_boat_10_n03344393_2676.png
cornet-s,3,413,NaN,clock,boat,3,2973_lp_dnn_3_boat_10_n03344393_6516.png
cornet-s,3,414,NaN,boat,boat,3,2974_lp_dnn_3_boat_10_n04612504_4963.png
cornet-s,3,415,NaN,bicycle,boat,3,2975_lp_dnn_3_boat_10_n03344393_7132.png
cornet-s,3,416,NaN,boat,boat,3,2976_lp_dnn_3_boat_10_n04612504_16783.png
cornet-s,3,417,NaN,airplane,boat,3,2977_lp_dnn_3_boat_10_n03344393_8979.png
cornet-s,3,418,NaN,keyboard,boat,3,2978_lp_dnn_3_boat_10_n03662601_4189.png
cornet-s,3,419,NaN,airplane,boat,3,2979_lp_dnn_3_boat_10_n04273569_11645.png
cornet-s,3,420,NaN,boat,boat,3,2980_lp_dnn_3_boat_10_n04612504_9162.png
cornet-s,3,421,NaN,bear,cat,3,2981_lp_dnn_3_cat_10_n02123045_6710.png
cornet-s,3,422,NaN,cat,cat,3,2982_lp_dnn_3_cat_10_n02123045_8317.png
cornet-s,3,423,NaN,cat,cat,3,2983_lp_dnn_3_cat_10_n02125311_6393.png
cornet-s,3,424,NaN,cat,cat,3,2984_lp_dnn_3_cat_10_n02123597_4775.png
cornet-s,3,425,NaN,cat,cat,3,2985_lp_dnn_3_cat_10_n02123394_5170.png
cornet-s,3,426,NaN,cat,cat,3,2986_lp_dnn_3_cat_10_n02123394_10972.png
cornet-s,3,427,NaN,cat,cat,3,2987_lp_dnn_3_cat_10_n02123159_4384.png
cornet-s,3,428,NaN,dog,cat,3,2988_lp_dnn_3_cat_10_n02123045_12620.png
cornet-s,3,429,NaN,cat,cat,3,2989_lp_dnn_3_cat_10_n02123597_3891.png
cornet-s,3,430,NaN,dog,cat,3,2990_lp_dnn_3_cat_10_n02123394_3656.png
cornet-s,3,431,NaN,bottle,bottle,3,2991_lp_dnn_3_bottle_10_n03983396_2777.png
cornet-s,3,432,NaN,bottle,bottle,3,2992_lp_dnn_3_bottle_10_n04579145_1054.png
cornet-s,3,433,NaN,bottle,bottle,3,2993_lp_dnn_3_bottle_10_n03937543_3373.png
cornet-s,3,434,NaN,bottle,bottle,3,2994_lp_dnn_3_bottle_10_n03983396_2246.png
cornet-s,3,435,NaN,bottle,bottle,3,2995_lp_dnn_3_bottle_10_n04560804_20634.png
cornet-s,3,436,NaN,bottle,bottle,3,2996_lp_dnn_3_bottle_10_n03983396_2579.png
cornet-s,3,437,NaN,bottle,bottle,3,2997_lp_dnn_3_bottle_10_n04579145_4610.png
cornet-s,3,438,NaN,bottle,bottle,3,2998_lp_dnn_3_bottle_10_n03983396_1147.png
cornet-s,3,439,NaN,bottle,bottle,3,2999_lp_dnn_3_bottle_10_n04557648_29152.png
cornet-s,3,440,NaN,knife,bottle,3,3000_lp_dnn_3_bottle_10_n04557648_22432.png
cornet-s,3,441,NaN,airplane,truck,3,3001_lp_dnn_3_truck_10_n03796401_21779.png
cornet-s,3,442,NaN,truck,truck,3,3002_lp_dnn_3_truck_10_n03417042_5136.png
cornet-s,3,443,NaN,truck,truck,3,3003_lp_dnn_3_truck_10_n03417042_8054.png
cornet-s,3,444,NaN,truck,truck,3,3004_lp_dnn_3_truck_10_n04467665_1029.png
cornet-s,3,445,NaN,chair,truck,3,3005_lp_dnn_3_truck_10_n03417042_9987.png
cornet-s,3,446,NaN,truck,truck,3,3006_lp_dnn_3_truck_10_n04467665_10025.png
cornet-s,3,447,NaN,truck,truck,3,3007_lp_dnn_3_truck_10_n03796401_5118.png
cornet-s,3,448,NaN,truck,truck,3,3008_lp_dnn_3_truck_10_n04467665_67927.png
cornet-s,3,449,NaN,truck,truck,3,3009_lp_dnn_3_truck_10_n03796401_7249.png
cornet-s,3,450,NaN,truck,truck,3,3010_lp_dnn_3_truck_10_n03417042_2132.png
cornet-s,3,451,NaN,truck,car,3,3011_lp_dnn_3_car_10_n04285008_11451.png
cornet-s,3,452,NaN,truck,car,3,3012_lp_dnn_3_car_10_n04285008_7441.png
cornet-s,3,453,NaN,car,car,3,3013_lp_dnn_3_car_10_n02814533_51205.png
cornet-s,3,454,NaN,car,car,3,3014_lp_dnn_3_car_10_n02814533_62356.png
cornet-s,3,455,NaN,truck,car,3,3015_lp_dnn_3_car_10_n02814533_85262.png
cornet-s,3,456,NaN,car,car,3,3016_lp_dnn_3_car_10_n03100240_4420.png
cornet-s,3,457,NaN,car,car,3,3017_lp_dnn_3_car_10_n04285008_15213.png
cornet-s,3,458,NaN,truck,car,3,3018_lp_dnn_3_car_10_n03100240_6010.png
cornet-s,3,459,NaN,car,car,3,3019_lp_dnn_3_car_10_n03100240_7951.png
cornet-s,3,460,NaN,car,car,3,3020_lp_dnn_3_car_10_n04285008_8519.png
cornet-s,3,461,NaN,bird,bird,3,3021_lp_dnn_3_bird_10_n01797886_15641.png
cornet-s,3,462,NaN,bird,bird,3,3022_lp_dnn_3_bird_10_n02002556_6911.png
cornet-s,3,463,NaN,knife,bird,3,3023_lp_dnn_3_bird_10_n02018795_1086.png
cornet-s,3,464,NaN,oven,bird,3,3024_lp_dnn_3_bird_10_n02007558_723.png
cornet-s,3,465,NaN,elephant,bird,3,3025_lp_dnn_3_bird_10_n02007558_14670.png
cornet-s,3,466,NaN,bird,bird,3,3026_lp_dnn_3_bird_10_n01614925_8888.png
cornet-s,3,467,NaN,keyboard,bird,3,3027_lp_dnn_3_bird_10_n01843065_8322.png
cornet-s,3,468,NaN,cat,bird,3,3028_lp_dnn_3_bird_10_n02006656_177.png
cornet-s,3,469,NaN,dog,bird,3,3029_lp_dnn_3_bird_10_n02018795_3359.png
cornet-s,3,470,NaN,knife,bird,3,3030_lp_dnn_3_bird_10_n01817953_10493.png
cornet-s,3,471,NaN,dog,dog,3,3031_lp_dnn_3_dog_10_n02091244_2510.png
cornet-s,3,472,NaN,bear,dog,3,3032_lp_dnn_3_dog_10_n02099849_3718.png
cornet-s,3,473,NaN,dog,dog,3,3033_lp_dnn_3_dog_10_n02091032_1141.png
cornet-s,3,474,NaN,elephant,dog,3,3034_lp_dnn_3_dog_10_n02091134_8868.png
cornet-s,3,475,NaN,dog,dog,3,3035_lp_dnn_3_dog_10_n02113978_9640.png
cornet-s,3,476,NaN,cat,dog,3,3036_lp_dnn_3_dog_10_n02112018_7203.png
cornet-s,3,477,NaN,dog,dog,3,3037_lp_dnn_3_dog_10_n02098286_2699.png
cornet-s,3,478,NaN,dog,dog,3,3038_lp_dnn_3_dog_10_n02107683_3947.png
cornet-s,3,479,NaN,truck,dog,3,3039_lp_dnn_3_dog_10_n02102177_1827.png
cornet-s,3,480,NaN,dog,dog,3,3040_lp_dnn_3_dog_10_n02099601_3031.png
cornet-s,3,481,NaN,keyboard,knife,5,3041_lp_dnn_5_knife_10_n03041632_20433.png
cornet-s,3,482,NaN,knife,knife,5,3042_lp_dnn_5_knife_10_n03041632_12651.png
cornet-s,3,483,NaN,knife,knife,5,3043_lp_dnn_5_knife_10_n03041632_4879.png
cornet-s,3,484,NaN,oven,knife,5,3044_lp_dnn_5_knife_10_n03041632_43625.png
cornet-s,3,485,NaN,clock,knife,5,3045_lp_dnn_5_knife_10_n03041632_32350.png
cornet-s,3,486,NaN,keyboard,knife,5,3046_lp_dnn_5_knife_10_n03041632_1407.png
cornet-s,3,487,NaN,knife,knife,5,3047_lp_dnn_5_knife_10_n03041632_30602.png
cornet-s,3,488,NaN,chair,knife,5,3048_lp_dnn_5_knife_10_n03041632_48675.png
cornet-s,3,489,NaN,knife,knife,5,3049_lp_dnn_5_knife_10_n03041632_20697.png
cornet-s,3,490,NaN,knife,knife,5,3050_lp_dnn_5_knife_10_n03041632_16206.png
cornet-s,3,491,NaN,oven,keyboard,5,3051_lp_dnn_5_keyboard_10_n04505470_2447.png
cornet-s,3,492,NaN,keyboard,keyboard,5,3052_lp_dnn_5_keyboard_10_n04505470_7736.png
cornet-s,3,493,NaN,keyboard,keyboard,5,3053_lp_dnn_5_keyboard_10_n04505470_4922.png
cornet-s,3,494,NaN,oven,keyboard,5,3054_lp_dnn_5_keyboard_10_n03085013_22217.png
cornet-s,3,495,NaN,keyboard,keyboard,5,3055_lp_dnn_5_keyboard_10_n04505470_1183.png
cornet-s,3,496,NaN,keyboard,keyboard,5,3056_lp_dnn_5_keyboard_10_n04505470_1529.png
cornet-s,3,497,NaN,keyboard,keyboard,5,3057_lp_dnn_5_keyboard_10_n03085013_25575.png
cornet-s,3,498,NaN,clock,keyboard,5,3058_lp_dnn_5_keyboard_10_n03085013_24268.png
cornet-s,3,499,NaN,truck,keyboard,5,3059_lp_dnn_5_keyboard_10_n03085013_19842.png
cornet-s,3,500,NaN,oven,keyboard,5,3060_lp_dnn_5_keyboard_10_n04505470_4411.png
cornet-s,3,501,NaN,elephant,elephant,5,3061_lp_dnn_5_elephant_10_n02504013_10773.png
cornet-s,3,502,NaN,elephant,elephant,5,3062_lp_dnn_5_elephant_10_n02504013_4379.png
cornet-s,3,503,NaN,dog,elephant,5,3063_lp_dnn_5_elephant_10_n02504013_6141.png
cornet-s,3,504,NaN,knife,elephant,5,3064_lp_dnn_5_elephant_10_n02504013_13560.png
cornet-s,3,505,NaN,elephant,elephant,5,3065_lp_dnn_5_elephant_10_n02504013_4145.png
cornet-s,3,506,NaN,elephant,elephant,5,3066_lp_dnn_5_elephant_10_n02504458_11693.png
cornet-s,3,507,NaN,knife,elephant,5,3067_lp_dnn_5_elephant_10_n02504458_5816.png
cornet-s,3,508,NaN,elephant,elephant,5,3068_lp_dnn_5_elephant_10_n02504458_2749.png
cornet-s,3,509,NaN,elephant,elephant,5,3069_lp_dnn_5_elephant_10_n02504458_13310.png
cornet-s,3,510,NaN,elephant,elephant,5,3070_lp_dnn_5_elephant_10_n02504458_7302.png
cornet-s,3,511,NaN,bicycle,bicycle,5,3071_lp_dnn_5_bicycle_10_n03792782_2525.png
cornet-s,3,512,NaN,bottle,bicycle,5,3072_lp_dnn_5_bicycle_10_n02835271_12846.png
cornet-s,3,513,NaN,bottle,bicycle,5,3073_lp_dnn_5_bicycle_10_n02835271_17649.png
cornet-s,3,514,NaN,elephant,bicycle,5,3074_lp_dnn_5_bicycle_10_n03792782_16122.png
cornet-s,3,515,NaN,knife,bicycle,5,3075_lp_dnn_5_bicycle_10_n03792782_16837.png
cornet-s,3,516,NaN,truck,bicycle,5,3076_lp_dnn_5_bicycle_10_n02835271_21974.png
cornet-s,3,517,NaN,clock,bicycle,5,3077_lp_dnn_5_bicycle_10_n03792782_13140.png
cornet-s,3,518,NaN,knife,bicycle,5,3078_lp_dnn_5_bicycle_10_n03792782_4544.png
cornet-s,3,519,NaN,bicycle,bicycle,5,3079_lp_dnn_5_bicycle_10_n03792782_636.png
cornet-s,3,520,NaN,knife,bicycle,5,3080_lp_dnn_5_bicycle_10_n03792782_15758.png
cornet-s,3,521,NaN,airplane,airplane,5,3081_lp_dnn_5_airplane_10_n02690373_8783.png
cornet-s,3,522,NaN,chair,airplane,5,3082_lp_dnn_5_airplane_10_n02690373_1706.png
cornet-s,3,523,NaN,knife,airplane,5,3083_lp_dnn_5_airplane_10_n02690373_5003.png
cornet-s,3,524,NaN,airplane,airplane,5,3084_lp_dnn_5_airplane_10_n02690373_17011.png
cornet-s,3,525,NaN,knife,airplane,5,3085_lp_dnn_5_airplane_10_n02690373_1821.png
cornet-s,3,526,NaN,airplane,airplane,5,3086_lp_dnn_5_airplane_10_n02690373_8163.png
cornet-s,3,527,NaN,airplane,airplane,5,3087_lp_dnn_5_airplane_10_n02690373_3032.png
cornet-s,3,528,NaN,airplane,airplane,5,3088_lp_dnn_5_airplane_10_n02690373_891.png
cornet-s,3,529,NaN,knife,airplane,5,3089_lp_dnn_5_airplane_10_n02690373_170.png
cornet-s,3,530,NaN,knife,airplane,5,3090_lp_dnn_5_airplane_10_n02690373_8746.png
cornet-s,3,531,NaN,clock,clock,5,3091_lp_dnn_5_clock_10_n04548280_77.png
cornet-s,3,532,NaN,clock,clock,5,3092_lp_dnn_5_clock_10_n04548280_4358.png
cornet-s,3,533,NaN,bottle,clock,5,3093_lp_dnn_5_clock_10_n03196217_5765.png
cornet-s,3,534,NaN,keyboard,clock,5,3094_lp_dnn_5_clock_10_n03196217_11624.png
cornet-s,3,535,NaN,clock,clock,5,3095_lp_dnn_5_clock_10_n02708093_563.png
cornet-s,3,536,NaN,keyboard,clock,5,3096_lp_dnn_5_clock_10_n03196217_8254.png
cornet-s,3,537,NaN,clock,clock,5,3097_lp_dnn_5_clock_10_n04548280_1565.png
cornet-s,3,538,NaN,clock,clock,5,3098_lp_dnn_5_clock_10_n04548280_9533.png
cornet-s,3,539,NaN,knife,clock,5,3099_lp_dnn_5_clock_10_n03196217_9255.png
cornet-s,3,540,NaN,clock,clock,5,3100_lp_dnn_5_clock_10_n03196217_6768.png
cornet-s,3,541,NaN,bear,oven,5,3101_lp_dnn_5_oven_10_n04111531_19742.png
cornet-s,3,542,NaN,knife,oven,5,3102_lp_dnn_5_oven_10_n04111531_681.png
cornet-s,3,543,NaN,oven,oven,5,3103_lp_dnn_5_oven_10_n04111531_7096.png
cornet-s,3,544,NaN,oven,oven,5,3104_lp_dnn_5_oven_10_n04111531_14543.png
cornet-s,3,545,NaN,knife,oven,5,3105_lp_dnn_5_oven_10_n04111531_283.png
cornet-s,3,546,NaN,oven,oven,5,3106_lp_dnn_5_oven_10_n04111531_5216.png
cornet-s,3,547,NaN,clock,oven,5,3107_lp_dnn_5_oven_10_n04111531_7728.png
cornet-s,3,548,NaN,bottle,oven,5,3108_lp_dnn_5_oven_10_n04111531_6590.png
cornet-s,3,549,NaN,truck,oven,5,3109_lp_dnn_5_oven_10_n04111531_1230.png
cornet-s,3,550,NaN,knife,oven,5,3110_lp_dnn_5_oven_10_n04111531_13590.png
cornet-s,3,551,NaN,bottle,chair,5,3111_lp_dnn_5_chair_10_n04429376_22819.png
cornet-s,3,552,NaN,bottle,chair,5,3112_lp_dnn_5_chair_10_n02791124_289.png
cornet-s,3,553,NaN,truck,chair,5,3113_lp_dnn_5_chair_10_n04429376_9501.png
cornet-s,3,554,NaN,oven,chair,5,3114_lp_dnn_5_chair_10_n02791124_10186.png
cornet-s,3,555,NaN,bottle,chair,5,3115_lp_dnn_5_chair_10_n04099969_1854.png
cornet-s,3,556,NaN,bottle,chair,5,3116_lp_dnn_5_chair_10_n02791124_999.png
cornet-s,3,557,NaN,oven,chair,5,3117_lp_dnn_5_chair_10_n04099969_19264.png
cornet-s,3,558,NaN,knife,chair,5,3118_lp_dnn_5_chair_10_n03376595_74.png
cornet-s,3,559,NaN,chair,chair,5,3119_lp_dnn_5_chair_10_n03376595_6865.png
cornet-s,3,560,NaN,bottle,chair,5,3120_lp_dnn_5_chair_10_n02791124_1390.png
cornet-s,3,561,NaN,bear,bear,5,3121_lp_dnn_5_bear_10_n02132136_10962.png
cornet-s,3,562,NaN,knife,bear,5,3122_lp_dnn_5_bear_10_n02134418_1245.png
cornet-s,3,563,NaN,bear,bear,5,3123_lp_dnn_5_bear_10_n02134084_982.png
cornet-s,3,564,NaN,truck,bear,5,3124_lp_dnn_5_bear_10_n02134418_1684.png
cornet-s,3,565,NaN,knife,bear,5,3125_lp_dnn_5_bear_10_n02132136_10107.png
cornet-s,3,566,NaN,bear,bear,5,3126_lp_dnn_5_bear_10_n02133161_3574.png
cornet-s,3,567,NaN,elephant,bear,5,3127_lp_dnn_5_bear_10_n02133161_4882.png
cornet-s,3,568,NaN,elephant,bear,5,3128_lp_dnn_5_bear_10_n02134084_1867.png
cornet-s,3,569,NaN,bear,bear,5,3129_lp_dnn_5_bear_10_n02134084_5858.png
cornet-s,3,570,NaN,elephant,bear,5,3130_lp_dnn_5_bear_10_n02132136_24194.png
cornet-s,3,571,NaN,truck,boat,5,3131_lp_dnn_5_boat_10_n04612504_5038.png
cornet-s,3,572,NaN,truck,boat,5,3132_lp_dnn_5_boat_10_n04612504_4793.png
cornet-s,3,573,NaN,oven,boat,5,3133_lp_dnn_5_boat_10_n04273569_14373.png
cornet-s,3,574,NaN,knife,boat,5,3134_lp_dnn_5_boat_10_n04612504_20368.png
cornet-s,3,575,NaN,knife,boat,5,3135_lp_dnn_5_boat_10_n04273569_3052.png
cornet-s,3,576,NaN,knife,boat,5,3136_lp_dnn_5_boat_10_n03344393_10193.png
cornet-s,3,577,NaN,knife,boat,5,3137_lp_dnn_5_boat_10_n03662601_5094.png
cornet-s,3,578,NaN,oven,boat,5,3138_lp_dnn_5_boat_10_n03662601_4765.png
cornet-s,3,579,NaN,knife,boat,5,3139_lp_dnn_5_boat_10_n04273569_16252.png
cornet-s,3,580,NaN,knife,boat,5,3140_lp_dnn_5_boat_10_n04273569_2942.png
cornet-s,3,581,NaN,dog,cat,5,3141_lp_dnn_5_cat_10_n02123597_6386.png
cornet-s,3,582,NaN,bottle,cat,5,3142_lp_dnn_5_cat_10_n02124075_880.png
cornet-s,3,583,NaN,knife,cat,5,3143_lp_dnn_5_cat_10_n02123394_583.png
cornet-s,3,584,NaN,bottle,cat,5,3144_lp_dnn_5_cat_10_n02123597_23346.png
cornet-s,3,585,NaN,knife,cat,5,3145_lp_dnn_5_cat_10_n02125311_19081.png
cornet-s,3,586,NaN,bear,cat,5,3146_lp_dnn_5_cat_10_n02123159_327.png
cornet-s,3,587,NaN,dog,cat,5,3147_lp_dnn_5_cat_10_n02125311_5985.png
cornet-s,3,588,NaN,oven,cat,5,3148_lp_dnn_5_cat_10_n02123394_5530.png
cornet-s,3,589,NaN,airplane,cat,5,3149_lp_dnn_5_cat_10_n02123597_11752.png
cornet-s,3,590,NaN,knife,cat,5,3150_lp_dnn_5_cat_10_n02123597_1762.png
cornet-s,3,591,NaN,knife,bottle,5,3151_lp_dnn_5_bottle_10_n04591713_7450.png
cornet-s,3,592,NaN,bottle,bottle,5,3152_lp_dnn_5_bottle_10_n03937543_8875.png
cornet-s,3,593,NaN,bottle,bottle,5,3153_lp_dnn_5_bottle_10_n03983396_1496.png
cornet-s,3,594,NaN,bottle,bottle,5,3154_lp_dnn_5_bottle_10_n04557648_27218.png
cornet-s,3,595,NaN,truck,bottle,5,3155_lp_dnn_5_bottle_10_n03983396_4879.png
cornet-s,3,596,NaN,keyboard,bottle,5,3156_lp_dnn_5_bottle_10_n04557648_5975.png
cornet-s,3,597,NaN,oven,bottle,5,3157_lp_dnn_5_bottle_10_n03983396_2493.png
cornet-s,3,598,NaN,bottle,bottle,5,3158_lp_dnn_5_bottle_10_n03983396_12184.png
cornet-s,3,599,NaN,truck,bottle,5,3159_lp_dnn_5_bottle_10_n02823428_1401.png
cornet-s,3,600,NaN,oven,bottle,5,3160_lp_dnn_5_bottle_10_n04560804_11775.png
cornet-s,3,601,NaN,truck,truck,5,3161_lp_dnn_5_truck_10_n03796401_8117.png
cornet-s,3,602,NaN,knife,truck,5,3162_lp_dnn_5_truck_10_n03417042_13448.png
cornet-s,3,603,NaN,truck,truck,5,3163_lp_dnn_5_truck_10_n04467665_41352.png
cornet-s,3,604,NaN,knife,truck,5,3164_lp_dnn_5_truck_10_n03417042_22513.png
cornet-s,3,605,NaN,truck,truck,5,3165_lp_dnn_5_truck_10_n03417042_19978.png
cornet-s,3,606,NaN,truck,truck,5,3166_lp_dnn_5_truck_10_n03417042_28762.png
cornet-s,3,607,NaN,truck,truck,5,3167_lp_dnn_5_truck_10_n03417042_7849.png
cornet-s,3,608,NaN,knife,truck,5,3168_lp_dnn_5_truck_10_n04467665_52682.png
cornet-s,3,609,NaN,dog,truck,5,3169_lp_dnn_5_truck_10_n03796401_2368.png
cornet-s,3,610,NaN,clock,truck,5,3170_lp_dnn_5_truck_10_n03796401_4121.png
cornet-s,3,611,NaN,truck,car,5,3171_lp_dnn_5_car_10_n03100240_3241.png
cornet-s,3,612,NaN,knife,car,5,3172_lp_dnn_5_car_10_n04285008_8951.png
cornet-s,3,613,NaN,keyboard,car,5,3173_lp_dnn_5_car_10_n03100240_8376.png
cornet-s,3,614,NaN,clock,car,5,3174_lp_dnn_5_car_10_n02814533_26936.png
cornet-s,3,615,NaN,truck,car,5,3175_lp_dnn_5_car_10_n03100240_19010.png
cornet-s,3,616,NaN,keyboard,car,5,3176_lp_dnn_5_car_10_n04285008_11028.png
cornet-s,3,617,NaN,truck,car,5,3177_lp_dnn_5_car_10_n03100240_2293.png
cornet-s,3,618,NaN,truck,car,5,3178_lp_dnn_5_car_10_n04285008_1301.png
cornet-s,3,619,NaN,knife,car,5,3179_lp_dnn_5_car_10_n04285008_3453.png
cornet-s,3,620,NaN,truck,car,5,3180_lp_dnn_5_car_10_n03100240_600.png
cornet-s,3,621,NaN,bird,bird,5,3181_lp_dnn_5_bird_10_n01855672_13100.png
cornet-s,3,622,NaN,knife,bird,5,3182_lp_dnn_5_bird_10_n02009912_362.png
cornet-s,3,623,NaN,truck,bird,5,3183_lp_dnn_5_bird_10_n02051845_4960.png
cornet-s,3,624,NaN,bird,bird,5,3184_lp_dnn_5_bird_10_n01560419_8948.png
cornet-s,3,625,NaN,bear,bird,5,3185_lp_dnn_5_bird_10_n01582220_4688.png
cornet-s,3,626,NaN,knife,bird,5,3186_lp_dnn_5_bird_10_n01614925_1664.png
cornet-s,3,627,NaN,knife,bird,5,3187_lp_dnn_5_bird_10_n01531178_12790.png
cornet-s,3,628,NaN,dog,bird,5,3188_lp_dnn_5_bird_10_n01582220_8286.png
cornet-s,3,629,NaN,bottle,bird,5,3189_lp_dnn_5_bird_10_n01817953_9941.png
cornet-s,3,630,NaN,clock,bird,5,3190_lp_dnn_5_bird_10_n02037110_23021.png
cornet-s,3,631,NaN,clock,dog,5,3191_lp_dnn_5_dog_10_n02100735_8577.png
cornet-s,3,632,NaN,knife,dog,5,3192_lp_dnn_5_dog_10_n02104365_5774.png
cornet-s,3,633,NaN,oven,dog,5,3193_lp_dnn_5_dog_10_n02094114_6094.png
cornet-s,3,634,NaN,knife,dog,5,3194_lp_dnn_5_dog_10_n02088466_4705.png
cornet-s,3,635,NaN,keyboard,dog,5,3195_lp_dnn_5_dog_10_n02093991_6335.png
cornet-s,3,636,NaN,dog,dog,5,3196_lp_dnn_5_dog_10_n02086240_6576.png
cornet-s,3,637,NaN,knife,dog,5,3197_lp_dnn_5_dog_10_n02105641_8983.png
cornet-s,3,638,NaN,knife,dog,5,3198_lp_dnn_5_dog_10_n02107312_3382.png
cornet-s,3,639,NaN,bear,dog,5,3199_lp_dnn_5_dog_10_n02098105_865.png
cornet-s,3,640,NaN,dog,dog,5,3200_lp_dnn_5_dog_10_n02107908_5597.png
cornet-s,3,641,NaN,knife,knife,7,3201_lp_dnn_7_knife_10_n03041632_33326.png
cornet-s,3,642,NaN,bottle,knife,7,3202_lp_dnn_7_knife_10_n03041632_13612.png
cornet-s,3,643,NaN,knife,knife,7,3203_lp_dnn_7_knife_10_n03041632_24798.png
cornet-s,3,644,NaN,dog,knife,7,3204_lp_dnn_7_knife_10_n03041632_32896.png
cornet-s,3,645,NaN,bottle,knife,7,3205_lp_dnn_7_knife_10_n03041632_21859.png
cornet-s,3,646,NaN,knife,knife,7,3206_lp_dnn_7_knife_10_n03041632_4714.png
cornet-s,3,647,NaN,keyboard,knife,7,3207_lp_dnn_7_knife_10_n03041632_14883.png
cornet-s,3,648,NaN,knife,knife,7,3208_lp_dnn_7_knife_10_n03041632_30573.png
cornet-s,3,649,NaN,knife,knife,7,3209_lp_dnn_7_knife_10_n03041632_22734.png
cornet-s,3,650,NaN,bottle,knife,7,3210_lp_dnn_7_knife_10_n03041632_93026.png
cornet-s,3,651,NaN,chair,keyboard,7,3211_lp_dnn_7_keyboard_10_n03085013_19818.png
cornet-s,3,652,NaN,knife,keyboard,7,3212_lp_dnn_7_keyboard_10_n03085013_14764.png
cornet-s,3,653,NaN,keyboard,keyboard,7,3213_lp_dnn_7_keyboard_10_n03085013_4160.png
cornet-s,3,654,NaN,oven,keyboard,7,3214_lp_dnn_7_keyboard_10_n03085013_15785.png
cornet-s,3,655,NaN,knife,keyboard,7,3215_lp_dnn_7_keyboard_10_n03085013_24653.png
cornet-s,3,656,NaN,knife,keyboard,7,3216_lp_dnn_7_keyboard_10_n03085013_1824.png
cornet-s,3,657,NaN,keyboard,keyboard,7,3217_lp_dnn_7_keyboard_10_n03085013_22260.png
cornet-s,3,658,NaN,truck,keyboard,7,3218_lp_dnn_7_keyboard_10_n04505470_3675.png
cornet-s,3,659,NaN,keyboard,keyboard,7,3219_lp_dnn_7_keyboard_10_n03085013_4156.png
cornet-s,3,660,NaN,bottle,keyboard,7,3220_lp_dnn_7_keyboard_10_n03085013_24284.png
cornet-s,3,661,NaN,knife,elephant,7,3221_lp_dnn_7_elephant_10_n02504458_6348.png
cornet-s,3,662,NaN,clock,elephant,7,3222_lp_dnn_7_elephant_10_n02504013_1382.png
cornet-s,3,663,NaN,knife,elephant,7,3223_lp_dnn_7_elephant_10_n02504013_1921.png
cornet-s,3,664,NaN,knife,elephant,7,3224_lp_dnn_7_elephant_10_n02504458_1304.png
cornet-s,3,665,NaN,keyboard,elephant,7,3225_lp_dnn_7_elephant_10_n02504013_3511.png
cornet-s,3,666,NaN,bear,elephant,7,3226_lp_dnn_7_elephant_10_n02504013_24217.png
cornet-s,3,667,NaN,knife,elephant,7,3227_lp_dnn_7_elephant_10_n02504458_5875.png
cornet-s,3,668,NaN,bottle,elephant,7,3228_lp_dnn_7_elephant_10_n02504013_8162.png
cornet-s,3,669,NaN,elephant,elephant,7,3229_lp_dnn_7_elephant_10_n02504013_2856.png
cornet-s,3,670,NaN,knife,elephant,7,3230_lp_dnn_7_elephant_10_n02504013_8215.png
cornet-s,3,671,NaN,knife,bicycle,7,3231_lp_dnn_7_bicycle_10_n02835271_5373.png
cornet-s,3,672,NaN,knife,bicycle,7,3232_lp_dnn_7_bicycle_10_n03792782_5880.png
cornet-s,3,673,NaN,knife,bicycle,7,3233_lp_dnn_7_bicycle_10_n02835271_29266.png
cornet-s,3,674,NaN,knife,bicycle,7,3234_lp_dnn_7_bicycle_10_n02835271_7685.png
cornet-s,3,675,NaN,dog,bicycle,7,3235_lp_dnn_7_bicycle_10_n02835271_7129.png
cornet-s,3,676,NaN,bottle,bicycle,7,3236_lp_dnn_7_bicycle_10_n03792782_4516.png
cornet-s,3,677,NaN,knife,bicycle,7,3237_lp_dnn_7_bicycle_10_n03792782_59381.png
cornet-s,3,678,NaN,knife,bicycle,7,3238_lp_dnn_7_bicycle_10_n03792782_3754.png
cornet-s,3,679,NaN,knife,bicycle,7,3239_lp_dnn_7_bicycle_10_n03792782_8184.png
cornet-s,3,680,NaN,knife,bicycle,7,3240_lp_dnn_7_bicycle_10_n02835271_3383.png
cornet-s,3,681,NaN,clock,airplane,7,3241_lp_dnn_7_airplane_10_n02690373_1450.png
cornet-s,3,682,NaN,knife,airplane,7,3242_lp_dnn_7_airplane_10_n02690373_6147.png
cornet-s,3,683,NaN,knife,airplane,7,3243_lp_dnn_7_airplane_10_n02690373_7053.png
cornet-s,3,684,NaN,bottle,airplane,7,3244_lp_dnn_7_airplane_10_n02690373_4784.png
cornet-s,3,685,NaN,knife,airplane,7,3245_lp_dnn_7_airplane_10_n02690373_2447.png
cornet-s,3,686,NaN,knife,airplane,7,3246_lp_dnn_7_airplane_10_n02690373_3362.png
cornet-s,3,687,NaN,knife,airplane,7,3247_lp_dnn_7_airplane_10_n02690373_10181.png
cornet-s,3,688,NaN,knife,airplane,7,3248_lp_dnn_7_airplane_10_n02690373_6536.png
cornet-s,3,689,NaN,clock,airplane,7,3249_lp_dnn_7_airplane_10_n02690373_5869.png
cornet-s,3,690,NaN,knife,airplane,7,3250_lp_dnn_7_airplane_10_n02690373_9813.png
cornet-s,3,691,NaN,clock,clock,7,3251_lp_dnn_7_clock_10_n02708093_425.png
cornet-s,3,692,NaN,keyboard,clock,7,3252_lp_dnn_7_clock_10_n03196217_2248.png
cornet-s,3,693,NaN,knife,clock,7,3253_lp_dnn_7_clock_10_n03196217_8614.png
cornet-s,3,694,NaN,oven,clock,7,3254_lp_dnn_7_clock_10_n03196217_10578.png
cornet-s,3,695,NaN,clock,clock,7,3255_lp_dnn_7_clock_10_n02708093_4737.png
cornet-s,3,696,NaN,bottle,clock,7,3256_lp_dnn_7_clock_10_n03196217_911.png
cornet-s,3,697,NaN,knife,clock,7,3257_lp_dnn_7_clock_10_n03196217_3274.png
cornet-s,3,698,NaN,keyboard,clock,7,3258_lp_dnn_7_clock_10_n04548280_4293.png
cornet-s,3,699,NaN,knife,clock,7,3259_lp_dnn_7_clock_10_n02708093_464.png
cornet-s,3,700,NaN,clock,clock,7,3260_lp_dnn_7_clock_10_n04548280_6319.png
cornet-s,3,701,NaN,bottle,oven,7,3261_lp_dnn_7_oven_10_n04111531_10465.png
cornet-s,3,702,NaN,knife,oven,7,3262_lp_dnn_7_oven_10_n04111531_9455.png
cornet-s,3,703,NaN,knife,oven,7,3263_lp_dnn_7_oven_10_n04111531_2831.png
cornet-s,3,704,NaN,bottle,oven,7,3264_lp_dnn_7_oven_10_n04111531_1970.png
cornet-s,3,705,NaN,knife,oven,7,3265_lp_dnn_7_oven_10_n04111531_20493.png
cornet-s,3,706,NaN,oven,oven,7,3266_lp_dnn_7_oven_10_n04111531_3076.png
cornet-s,3,707,NaN,bottle,oven,7,3267_lp_dnn_7_oven_10_n04111531_6120.png
cornet-s,3,708,NaN,bottle,oven,7,3268_lp_dnn_7_oven_10_n04111531_3063.png
cornet-s,3,709,NaN,cat,oven,7,3269_lp_dnn_7_oven_10_n04111531_14848.png
cornet-s,3,710,NaN,knife,oven,7,3270_lp_dnn_7_oven_10_n04111531_2006.png
cornet-s,3,711,NaN,bottle,chair,7,3271_lp_dnn_7_chair_10_n04429376_35063.png
cornet-s,3,712,NaN,bottle,chair,7,3272_lp_dnn_7_chair_10_n04099969_16456.png
cornet-s,3,713,NaN,keyboard,chair,7,3273_lp_dnn_7_chair_10_n02791124_419.png
cornet-s,3,714,NaN,knife,chair,7,3274_lp_dnn_7_chair_10_n04099969_7530.png
cornet-s,3,715,NaN,knife,chair,7,3275_lp_dnn_7_chair_10_n04429376_4849.png
cornet-s,3,716,NaN,knife,chair,7,3276_lp_dnn_7_chair_10_n04429376_16952.png
cornet-s,3,717,NaN,knife,chair,7,3277_lp_dnn_7_chair_10_n04429376_10453.png
cornet-s,3,718,NaN,knife,chair,7,3278_lp_dnn_7_chair_10_n04099969_13996.png
cornet-s,3,719,NaN,knife,chair,7,3279_lp_dnn_7_chair_10_n03376595_9093.png
cornet-s,3,720,NaN,oven,chair,7,3280_lp_dnn_7_chair_10_n04099969_2525.png
cornet-s,3,721,NaN,bottle,bear,7,3281_lp_dnn_7_bear_10_n02134418_1347.png
cornet-s,3,722,NaN,knife,bear,7,3282_lp_dnn_7_bear_10_n02134418_3035.png
cornet-s,3,723,NaN,knife,bear,7,3283_lp_dnn_7_bear_10_n02134084_14417.png
cornet-s,3,724,NaN,knife,bear,7,3284_lp_dnn_7_bear_10_n02133161_10314.png
cornet-s,3,725,NaN,dog,bear,7,3285_lp_dnn_7_bear_10_n02133161_19677.png
cornet-s,3,726,NaN,knife,bear,7,3286_lp_dnn_7_bear_10_n02133161_10108.png
cornet-s,3,727,NaN,bear,bear,7,3287_lp_dnn_7_bear_10_n02133161_2340.png
cornet-s,3,728,NaN,bear,bear,7,3288_lp_dnn_7_bear_10_n02132136_8118.png
cornet-s,3,729,NaN,knife,bear,7,3289_lp_dnn_7_bear_10_n02132136_110.png
cornet-s,3,730,NaN,cat,bear,7,3290_lp_dnn_7_bear_10_n02133161_1362.png
cornet-s,3,731,NaN,knife,boat,7,3291_lp_dnn_7_boat_10_n03344393_2254.png
cornet-s,3,732,NaN,knife,boat,7,3292_lp_dnn_7_boat_10_n03662601_8462.png
cornet-s,3,733,NaN,knife,boat,7,3293_lp_dnn_7_boat_10_n04273569_20113.png
cornet-s,3,734,NaN,knife,boat,7,3294_lp_dnn_7_boat_10_n03662601_23469.png
cornet-s,3,735,NaN,oven,boat,7,3295_lp_dnn_7_boat_10_n04612504_34550.png
cornet-s,3,736,NaN,knife,boat,7,3296_lp_dnn_7_boat_10_n02951358_10003.png
cornet-s,3,737,NaN,knife,boat,7,3297_lp_dnn_7_boat_10_n03662601_15713.png
cornet-s,3,738,NaN,knife,boat,7,3298_lp_dnn_7_boat_10_n03662601_5145.png
cornet-s,3,739,NaN,knife,boat,7,3299_lp_dnn_7_boat_10_n03344393_6474.png
cornet-s,3,740,NaN,bear,boat,7,3300_lp_dnn_7_boat_10_n02951358_6564.png
cornet-s,3,741,NaN,knife,cat,7,3301_lp_dnn_7_cat_10_n02123394_7807.png
cornet-s,3,742,NaN,knife,cat,7,3302_lp_dnn_7_cat_10_n02124075_14787.png
cornet-s,3,743,NaN,knife,cat,7,3303_lp_dnn_7_cat_10_n02123394_518.png
cornet-s,3,744,NaN,dog,cat,7,3304_lp_dnn_7_cat_10_n02125311_19040.png
cornet-s,3,745,NaN,knife,cat,7,3305_lp_dnn_7_cat_10_n02123159_1864.png
cornet-s,3,746,NaN,knife,cat,7,3306_lp_dnn_7_cat_10_n02124075_9555.png
cornet-s,3,747,NaN,knife,cat,7,3307_lp_dnn_7_cat_10_n02123045_5084.png
cornet-s,3,748,NaN,knife,cat,7,3308_lp_dnn_7_cat_10_n02125311_34035.png
cornet-s,3,749,NaN,knife,cat,7,3309_lp_dnn_7_cat_10_n02123597_7248.png
cornet-s,3,750,NaN,knife,cat,7,3310_lp_dnn_7_cat_10_n02124075_12460.png
cornet-s,3,751,NaN,bottle,bottle,7,3311_lp_dnn_7_bottle_10_n04591713_2026.png
cornet-s,3,752,NaN,bottle,bottle,7,3312_lp_dnn_7_bottle_10_n04591713_4057.png
cornet-s,3,753,NaN,bottle,bottle,7,3313_lp_dnn_7_bottle_10_n04579145_1236.png
cornet-s,3,754,NaN,bottle,bottle,7,3314_lp_dnn_7_bottle_10_n04591713_6594.png
cornet-s,3,755,NaN,bottle,bottle,7,3315_lp_dnn_7_bottle_10_n04557648_684.png
cornet-s,3,756,NaN,knife,bottle,7,3316_lp_dnn_7_bottle_10_n04591713_5921.png
cornet-s,3,757,NaN,keyboard,bottle,7,3317_lp_dnn_7_bottle_10_n04557648_7837.png
cornet-s,3,758,NaN,bottle,bottle,7,3318_lp_dnn_7_bottle_10_n04560804_16022.png
cornet-s,3,759,NaN,keyboard,bottle,7,3319_lp_dnn_7_bottle_10_n03937543_9376.png
cornet-s,3,760,NaN,bottle,bottle,7,3320_lp_dnn_7_bottle_10_n03983396_12916.png
cornet-s,3,761,NaN,knife,truck,7,3321_lp_dnn_7_truck_10_n03796401_15046.png
cornet-s,3,762,NaN,truck,truck,7,3322_lp_dnn_7_truck_10_n03417042_5923.png
cornet-s,3,763,NaN,bottle,truck,7,3323_lp_dnn_7_truck_10_n04467665_23218.png
cornet-s,3,764,NaN,bear,truck,7,3324_lp_dnn_7_truck_10_n04467665_49826.png
cornet-s,3,765,NaN,knife,truck,7,3325_lp_dnn_7_truck_10_n03417042_3192.png
cornet-s,3,766,NaN,knife,truck,7,3326_lp_dnn_7_truck_10_n03796401_19845.png
cornet-s,3,767,NaN,knife,truck,7,3327_lp_dnn_7_truck_10_n04467665_74235.png
cornet-s,3,768,NaN,knife,truck,7,3328_lp_dnn_7_truck_10_n03417042_835.png
cornet-s,3,769,NaN,truck,truck,7,3329_lp_dnn_7_truck_10_n03796401_6631.png
cornet-s,3,770,NaN,knife,truck,7,3330_lp_dnn_7_truck_10_n03796401_5535.png
cornet-s,3,771,NaN,truck,car,7,3331_lp_dnn_7_car_10_n02814533_83806.png
cornet-s,3,772,NaN,knife,car,7,3332_lp_dnn_7_car_10_n03100240_9412.png
cornet-s,3,773,NaN,knife,car,7,3333_lp_dnn_7_car_10_n04285008_14128.png
cornet-s,3,774,NaN,bottle,car,7,3334_lp_dnn_7_car_10_n04285008_12501.png
cornet-s,3,775,NaN,knife,car,7,3335_lp_dnn_7_car_10_n04285008_7739.png
cornet-s,3,776,NaN,knife,car,7,3336_lp_dnn_7_car_10_n03100240_17163.png
cornet-s,3,777,NaN,knife,car,7,3337_lp_dnn_7_car_10_n04285008_2560.png
cornet-s,3,778,NaN,bottle,car,7,3338_lp_dnn_7_car_10_n04285008_3394.png
cornet-s,3,779,NaN,knife,car,7,3339_lp_dnn_7_car_10_n03100240_17208.png
cornet-s,3,780,NaN,knife,car,7,3340_lp_dnn_7_car_10_n03100240_18891.png
cornet-s,3,781,NaN,knife,bird,7,3341_lp_dnn_7_bird_10_n01601694_19615.png
cornet-s,3,782,NaN,knife,bird,7,3342_lp_dnn_7_bird_10_n01531178_33011.png
cornet-s,3,783,NaN,knife,bird,7,3343_lp_dnn_7_bird_10_n01558993_3352.png
cornet-s,3,784,NaN,knife,bird,7,3344_lp_dnn_7_bird_10_n01829413_7281.png
cornet-s,3,785,NaN,knife,bird,7,3345_lp_dnn_7_bird_10_n01592084_9939.png
cornet-s,3,786,NaN,cat,bird,7,3346_lp_dnn_7_bird_10_n01514859_4950.png
cornet-s,3,787,NaN,knife,bird,7,3347_lp_dnn_7_bird_10_n01537544_2564.png
cornet-s,3,788,NaN,bear,bird,7,3348_lp_dnn_7_bird_10_n01855672_57092.png
cornet-s,3,789,NaN,cat,bird,7,3349_lp_dnn_7_bird_10_n01833805_30804.png
cornet-s,3,790,NaN,elephant,bird,7,3350_lp_dnn_7_bird_10_n02018795_5424.png
cornet-s,3,791,NaN,bottle,dog,7,3351_lp_dnn_7_dog_10_n02113023_5988.png
cornet-s,3,792,NaN,clock,dog,7,3352_lp_dnn_7_dog_10_n02106166_7596.png
cornet-s,3,793,NaN,knife,dog,7,3353_lp_dnn_7_dog_10_n02101388_10639.png
cornet-s,3,794,NaN,knife,dog,7,3354_lp_dnn_7_dog_10_n02105855_17777.png
cornet-s,3,795,NaN,bottle,dog,7,3355_lp_dnn_7_dog_10_n02112706_967.png
cornet-s,3,796,NaN,elephant,dog,7,3356_lp_dnn_7_dog_10_n02100877_8510.png
cornet-s,3,797,NaN,keyboard,dog,7,3357_lp_dnn_7_dog_10_n02107142_51374.png
cornet-s,3,798,NaN,bottle,dog,7,3358_lp_dnn_7_dog_10_n02106166_7282.png
cornet-s,3,799,NaN,dog,dog,7,3359_lp_dnn_7_dog_10_n02100735_9535.png
cornet-s,3,800,NaN,knife,dog,7,3360_lp_dnn_7_dog_10_n02095570_2141.png
cornet-s,3,801,NaN,knife,knife,10,3361_lp_dnn_10_knife_10_n03041632_5302.png
cornet-s,3,802,NaN,keyboard,knife,10,3362_lp_dnn_10_knife_10_n03041632_18863.png
cornet-s,3,803,NaN,knife,knife,10,3363_lp_dnn_10_knife_10_n03041632_27848.png
cornet-s,3,804,NaN,knife,knife,10,3364_lp_dnn_10_knife_10_n03041632_11700.png
cornet-s,3,805,NaN,knife,knife,10,3365_lp_dnn_10_knife_10_n03041632_98864.png
cornet-s,3,806,NaN,knife,knife,10,3366_lp_dnn_10_knife_10_n03041632_29684.png
cornet-s,3,807,NaN,knife,knife,10,3367_lp_dnn_10_knife_10_n03041632_9635.png
cornet-s,3,808,NaN,knife,knife,10,3368_lp_dnn_10_knife_10_n03041632_18468.png
cornet-s,3,809,NaN,knife,knife,10,3369_lp_dnn_10_knife_10_n03041632_927.png
cornet-s,3,810,NaN,knife,knife,10,3370_lp_dnn_10_knife_10_n03041632_1671.png
cornet-s,3,811,NaN,keyboard,keyboard,10,3371_lp_dnn_10_keyboard_10_n04505470_4575.png
cornet-s,3,812,NaN,knife,keyboard,10,3372_lp_dnn_10_keyboard_10_n04505470_1096.png
cornet-s,3,813,NaN,knife,keyboard,10,3373_lp_dnn_10_keyboard_10_n03085013_22744.png
cornet-s,3,814,NaN,knife,keyboard,10,3374_lp_dnn_10_keyboard_10_n04505470_3566.png
cornet-s,3,815,NaN,keyboard,keyboard,10,3375_lp_dnn_10_keyboard_10_n03085013_23268.png
cornet-s,3,816,NaN,knife,keyboard,10,3376_lp_dnn_10_keyboard_10_n04505470_10697.png
cornet-s,3,817,NaN,knife,keyboard,10,3377_lp_dnn_10_keyboard_10_n04505470_4362.png
cornet-s,3,818,NaN,bottle,keyboard,10,3378_lp_dnn_10_keyboard_10_n04505470_147.png
cornet-s,3,819,NaN,knife,keyboard,10,3379_lp_dnn_10_keyboard_10_n03085013_3204.png
cornet-s,3,820,NaN,keyboard,keyboard,10,3380_lp_dnn_10_keyboard_10_n03085013_15825.png
cornet-s,3,821,NaN,knife,elephant,10,3381_lp_dnn_10_elephant_10_n02504013_5615.png
cornet-s,3,822,NaN,knife,elephant,10,3382_lp_dnn_10_elephant_10_n02504458_224.png
cornet-s,3,823,NaN,elephant,elephant,10,3383_lp_dnn_10_elephant_10_n02504013_6660.png
cornet-s,3,824,NaN,dog,elephant,10,3384_lp_dnn_10_elephant_10_n02504013_9678.png
cornet-s,3,825,NaN,elephant,elephant,10,3385_lp_dnn_10_elephant_10_n02504458_7084.png
cornet-s,3,826,NaN,knife,elephant,10,3386_lp_dnn_10_elephant_10_n02504013_3847.png
cornet-s,3,827,NaN,knife,elephant,10,3387_lp_dnn_10_elephant_10_n02504013_2796.png
cornet-s,3,828,NaN,bottle,elephant,10,3388_lp_dnn_10_elephant_10_n02504013_3173.png
cornet-s,3,829,NaN,knife,elephant,10,3389_lp_dnn_10_elephant_10_n02504458_3344.png
cornet-s,3,830,NaN,bear,elephant,10,3390_lp_dnn_10_elephant_10_n02504458_7259.png
cornet-s,3,831,NaN,bear,bicycle,10,3391_lp_dnn_10_bicycle_10_n03792782_42131.png
cornet-s,3,832,NaN,bear,bicycle,10,3392_lp_dnn_10_bicycle_10_n02835271_4923.png
cornet-s,3,833,NaN,bear,bicycle,10,3393_lp_dnn_10_bicycle_10_n03792782_8271.png
cornet-s,3,834,NaN,knife,bicycle,10,3394_lp_dnn_10_bicycle_10_n03792782_5665.png
cornet-s,3,835,NaN,knife,bicycle,10,3395_lp_dnn_10_bicycle_10_n03792782_6512.png
cornet-s,3,836,NaN,knife,bicycle,10,3396_lp_dnn_10_bicycle_10_n03792782_49637.png
cornet-s,3,837,NaN,knife,bicycle,10,3397_lp_dnn_10_bicycle_10_n03792782_11023.png
cornet-s,3,838,NaN,dog,bicycle,10,3398_lp_dnn_10_bicycle_10_n02835271_507.png
cornet-s,3,839,NaN,knife,bicycle,10,3399_lp_dnn_10_bicycle_10_n02835271_8109.png
cornet-s,3,840,NaN,elephant,bicycle,10,3400_lp_dnn_10_bicycle_10_n03792782_45780.png
cornet-s,3,841,NaN,knife,airplane,10,3401_lp_dnn_10_airplane_10_n02690373_744.png
cornet-s,3,842,NaN,knife,airplane,10,3402_lp_dnn_10_airplane_10_n02690373_2433.png
cornet-s,3,843,NaN,knife,airplane,10,3403_lp_dnn_10_airplane_10_n02690373_6492.png
cornet-s,3,844,NaN,knife,airplane,10,3404_lp_dnn_10_airplane_10_n02690373_5534.png
cornet-s,3,845,NaN,knife,airplane,10,3405_lp_dnn_10_airplane_10_n02690373_4412.png
cornet-s,3,846,NaN,knife,airplane,10,3406_lp_dnn_10_airplane_10_n02690373_7375.png
cornet-s,3,847,NaN,clock,airplane,10,3407_lp_dnn_10_airplane_10_n02690373_2078.png
cornet-s,3,848,NaN,knife,airplane,10,3408_lp_dnn_10_airplane_10_n02690373_5778.png
cornet-s,3,849,NaN,knife,airplane,10,3409_lp_dnn_10_airplane_10_n02690373_4105.png
cornet-s,3,850,NaN,knife,airplane,10,3410_lp_dnn_10_airplane_10_n02690373_2867.png
cornet-s,3,851,NaN,knife,clock,10,3411_lp_dnn_10_clock_10_n02708093_1559.png
cornet-s,3,852,NaN,clock,clock,10,3412_lp_dnn_10_clock_10_n04548280_15157.png
cornet-s,3,853,NaN,knife,clock,10,3413_lp_dnn_10_clock_10_n02708093_2498.png
cornet-s,3,854,NaN,knife,clock,10,3414_lp_dnn_10_clock_10_n03196217_1792.png
cornet-s,3,855,NaN,knife,clock,10,3415_lp_dnn_10_clock_10_n02708093_2833.png
cornet-s,3,856,NaN,clock,clock,10,3416_lp_dnn_10_clock_10_n04548280_6361.png
cornet-s,3,857,NaN,knife,clock,10,3417_lp_dnn_10_clock_10_n04548280_7781.png
cornet-s,3,858,NaN,knife,clock,10,3418_lp_dnn_10_clock_10_n04548280_1440.png
cornet-s,3,859,NaN,knife,clock,10,3419_lp_dnn_10_clock_10_n04548280_7384.png
cornet-s,3,860,NaN,knife,clock,10,3420_lp_dnn_10_clock_10_n04548280_21.png
cornet-s,3,861,NaN,knife,oven,10,3421_lp_dnn_10_oven_10_n04111531_5204.png
cornet-s,3,862,NaN,bottle,oven,10,3422_lp_dnn_10_oven_10_n04111531_22517.png
cornet-s,3,863,NaN,knife,oven,10,3423_lp_dnn_10_oven_10_n04111531_8081.png
cornet-s,3,864,NaN,knife,oven,10,3424_lp_dnn_10_oven_10_n04111531_21963.png
cornet-s,3,865,NaN,knife,oven,10,3425_lp_dnn_10_oven_10_n04111531_14934.png
cornet-s,3,866,NaN,knife,oven,10,3426_lp_dnn_10_oven_10_n04111531_3570.png
cornet-s,3,867,NaN,knife,oven,10,3427_lp_dnn_10_oven_10_n04111531_4904.png
cornet-s,3,868,NaN,knife,oven,10,3428_lp_dnn_10_oven_10_n04111531_22834.png
cornet-s,3,869,NaN,oven,oven,10,3429_lp_dnn_10_oven_10_n04111531_2342.png
cornet-s,3,870,NaN,knife,oven,10,3430_lp_dnn_10_oven_10_n04111531_807.png
cornet-s,3,871,NaN,knife,chair,10,3431_lp_dnn_10_chair_10_n04429376_10059.png
cornet-s,3,872,NaN,knife,chair,10,3432_lp_dnn_10_chair_10_n04099969_1490.png
cornet-s,3,873,NaN,knife,chair,10,3433_lp_dnn_10_chair_10_n02791124_958.png
cornet-s,3,874,NaN,bottle,chair,10,3434_lp_dnn_10_chair_10_n02791124_177.png
cornet-s,3,875,NaN,knife,chair,10,3435_lp_dnn_10_chair_10_n02791124_2123.png
cornet-s,3,876,NaN,knife,chair,10,3436_lp_dnn_10_chair_10_n04429376_9312.png
cornet-s,3,877,NaN,knife,chair,10,3437_lp_dnn_10_chair_10_n04099969_18049.png
cornet-s,3,878,NaN,bottle,chair,10,3438_lp_dnn_10_chair_10_n03376595_766.png
cornet-s,3,879,NaN,bottle,chair,10,3439_lp_dnn_10_chair_10_n04099969_25659.png
cornet-s,3,880,NaN,knife,chair,10,3440_lp_dnn_10_chair_10_n04099969_1696.png
cornet-s,3,881,NaN,knife,bear,10,3441_lp_dnn_10_bear_10_n02133161_2346.png
cornet-s,3,882,NaN,knife,bear,10,3442_lp_dnn_10_bear_10_n02134418_5365.png
cornet-s,3,883,NaN,knife,bear,10,3443_lp_dnn_10_bear_10_n02132136_29760.png
cornet-s,3,884,NaN,knife,bear,10,3444_lp_dnn_10_bear_10_n02134084_14031.png
cornet-s,3,885,NaN,elephant,bear,10,3445_lp_dnn_10_bear_10_n02134084_8144.png
cornet-s,3,886,NaN,knife,bear,10,3446_lp_dnn_10_bear_10_n02134418_1830.png
cornet-s,3,887,NaN,knife,bear,10,3447_lp_dnn_10_bear_10_n02134418_593.png
cornet-s,3,888,NaN,knife,bear,10,3448_lp_dnn_10_bear_10_n02133161_5286.png
cornet-s,3,889,NaN,dog,bear,10,3449_lp_dnn_10_bear_10_n02133161_1092.png
cornet-s,3,890,NaN,knife,bear,10,3450_lp_dnn_10_bear_10_n02133161_7604.png
cornet-s,3,891,NaN,knife,boat,10,3451_lp_dnn_10_boat_10_n04273569_4917.png
cornet-s,3,892,NaN,knife,boat,10,3452_lp_dnn_10_boat_10_n03344393_3796.png
cornet-s,3,893,NaN,knife,boat,10,3453_lp_dnn_10_boat_10_n03662601_21543.png
cornet-s,3,894,NaN,knife,boat,10,3454_lp_dnn_10_boat_10_n03344393_2875.png
cornet-s,3,895,NaN,knife,boat,10,3455_lp_dnn_10_boat_10_n03344393_4273.png
cornet-s,3,896,NaN,knife,boat,10,3456_lp_dnn_10_boat_10_n03662601_7662.png
cornet-s,3,897,NaN,knife,boat,10,3457_lp_dnn_10_boat_10_n04612504_16600.png
cornet-s,3,898,NaN,knife,boat,10,3458_lp_dnn_10_boat_10_n04612504_18699.png
cornet-s,3,899,NaN,knife,boat,10,3459_lp_dnn_10_boat_10_n04612504_10662.png
cornet-s,3,900,NaN,knife,boat,10,3460_lp_dnn_10_boat_10_n03662601_22889.png
cornet-s,3,901,NaN,knife,cat,10,3461_lp_dnn_10_cat_10_n02123394_5731.png
cornet-s,3,902,NaN,knife,cat,10,3462_lp_dnn_10_cat_10_n02123597_5218.png
cornet-s,3,903,NaN,bottle,cat,10,3463_lp_dnn_10_cat_10_n02123159_2477.png
cornet-s,3,904,NaN,knife,cat,10,3464_lp_dnn_10_cat_10_n02124075_7979.png
cornet-s,3,905,NaN,knife,cat,10,3465_lp_dnn_10_cat_10_n02123597_2162.png
cornet-s,3,906,NaN,knife,cat,10,3466_lp_dnn_10_cat_10_n02123394_995.png
cornet-s,3,907,NaN,knife,cat,10,3467_lp_dnn_10_cat_10_n02123597_23389.png
cornet-s,3,908,NaN,knife,cat,10,3468_lp_dnn_10_cat_10_n02123394_870.png
cornet-s,3,909,NaN,knife,cat,10,3469_lp_dnn_10_cat_10_n02123394_642.png
cornet-s,3,910,NaN,knife,cat,10,3470_lp_dnn_10_cat_10_n02123159_7228.png
cornet-s,3,911,NaN,knife,bottle,10,3471_lp_dnn_10_bottle_10_n04579145_6880.png
cornet-s,3,912,NaN,knife,bottle,10,3472_lp_dnn_10_bottle_10_n04557648_20572.png
cornet-s,3,913,NaN,knife,bottle,10,3473_lp_dnn_10_bottle_10_n03983396_24827.png
cornet-s,3,914,NaN,bottle,bottle,10,3474_lp_dnn_10_bottle_10_n04591713_667.png
cornet-s,3,915,NaN,knife,bottle,10,3475_lp_dnn_10_bottle_10_n03983396_4455.png
cornet-s,3,916,NaN,knife,bottle,10,3476_lp_dnn_10_bottle_10_n04560804_15983.png
cornet-s,3,917,NaN,knife,bottle,10,3477_lp_dnn_10_bottle_10_n04560804_3392.png
cornet-s,3,918,NaN,dog,bottle,10,3478_lp_dnn_10_bottle_10_n03983396_5694.png
cornet-s,3,919,NaN,clock,bottle,10,3479_lp_dnn_10_bottle_10_n03937543_4094.png
cornet-s,3,920,NaN,knife,bottle,10,3480_lp_dnn_10_bottle_10_n04560804_21647.png
cornet-s,3,921,NaN,knife,truck,10,3481_lp_dnn_10_truck_10_n04467665_71927.png
cornet-s,3,922,NaN,knife,truck,10,3482_lp_dnn_10_truck_10_n03796401_6487.png
cornet-s,3,923,NaN,knife,truck,10,3483_lp_dnn_10_truck_10_n04467665_74008.png
cornet-s,3,924,NaN,knife,truck,10,3484_lp_dnn_10_truck_10_n03417042_26437.png
cornet-s,3,925,NaN,knife,truck,10,3485_lp_dnn_10_truck_10_n04467665_11776.png
cornet-s,3,926,NaN,knife,truck,10,3486_lp_dnn_10_truck_10_n03417042_26713.png
cornet-s,3,927,NaN,knife,truck,10,3487_lp_dnn_10_truck_10_n04467665_52320.png
cornet-s,3,928,NaN,knife,truck,10,3488_lp_dnn_10_truck_10_n04467665_25374.png
cornet-s,3,929,NaN,dog,truck,10,3489_lp_dnn_10_truck_10_n04467665_52552.png
cornet-s,3,930,NaN,knife,truck,10,3490_lp_dnn_10_truck_10_n03417042_7530.png
cornet-s,3,931,NaN,knife,car,10,3491_lp_dnn_10_car_10_n02814533_5899.png
cornet-s,3,932,NaN,knife,car,10,3492_lp_dnn_10_car_10_n02814533_74176.png
cornet-s,3,933,NaN,knife,car,10,3493_lp_dnn_10_car_10_n02814533_38862.png
cornet-s,3,934,NaN,knife,car,10,3494_lp_dnn_10_car_10_n02814533_5991.png
cornet-s,3,935,NaN,knife,car,10,3495_lp_dnn_10_car_10_n04285008_7034.png
cornet-s,3,936,NaN,knife,car,10,3496_lp_dnn_10_car_10_n03100240_9467.png
cornet-s,3,937,NaN,oven,car,10,3497_lp_dnn_10_car_10_n02814533_31275.png
cornet-s,3,938,NaN,knife,car,10,3498_lp_dnn_10_car_10_n02814533_88986.png
cornet-s,3,939,NaN,knife,car,10,3499_lp_dnn_10_car_10_n02814533_41058.png
cornet-s,3,940,NaN,bear,car,10,3500_lp_dnn_10_car_10_n03100240_12545.png
cornet-s,3,941,NaN,knife,bird,10,3501_lp_dnn_10_bird_10_n02009229_2324.png
cornet-s,3,942,NaN,knife,bird,10,3502_lp_dnn_10_bird_10_n02007558_12435.png
cornet-s,3,943,NaN,knife,bird,10,3503_lp_dnn_10_bird_10_n01818515_10084.png
cornet-s,3,944,NaN,knife,bird,10,3504_lp_dnn_10_bird_10_n01616318_2111.png
cornet-s,3,945,NaN,knife,bird,10,3505_lp_dnn_10_bird_10_n02018795_6941.png
cornet-s,3,946,NaN,cat,bird,10,3506_lp_dnn_10_bird_10_n01828970_5908.png
cornet-s,3,947,NaN,knife,bird,10,3507_lp_dnn_10_bird_10_n01797886_3821.png
cornet-s,3,948,NaN,knife,bird,10,3508_lp_dnn_10_bird_10_n01798484_7469.png
cornet-s,3,949,NaN,knife,bird,10,3509_lp_dnn_10_bird_10_n02013706_13473.png
cornet-s,3,950,NaN,knife,bird,10,3510_lp_dnn_10_bird_10_n01582220_5289.png
cornet-s,3,951,NaN,knife,dog,10,3511_lp_dnn_10_dog_10_n02088364_10580.png
cornet-s,3,952,NaN,knife,dog,10,3512_lp_dnn_10_dog_10_n02112018_6021.png
cornet-s,3,953,NaN,knife,dog,10,3513_lp_dnn_10_dog_10_n02106030_6820.png
cornet-s,3,954,NaN,knife,dog,10,3514_lp_dnn_10_dog_10_n02113624_932.png
cornet-s,3,955,NaN,knife,dog,10,3515_lp_dnn_10_dog_10_n02106662_18405.png
cornet-s,3,956,NaN,dog,dog,10,3516_lp_dnn_10_dog_10_n02109961_16240.png
cornet-s,3,957,NaN,knife,dog,10,3517_lp_dnn_10_dog_10_n02099267_2909.png
cornet-s,3,958,NaN,knife,dog,10,3518_lp_dnn_10_dog_10_n02106550_4084.png
cornet-s,3,959,NaN,knife,dog,10,3519_lp_dnn_10_dog_10_n02092339_4271.png
cornet-s,3,960,NaN,knife,dog,10,3520_lp_dnn_10_dog_10_n02112350_8454.png
cornet-s,3,961,NaN,knife,knife,15,3521_lp_dnn_15_knife_10_n03041632_31632.png
cornet-s,3,962,NaN,knife,knife,15,3522_lp_dnn_15_knife_10_n03041632_54603.png
cornet-s,3,963,NaN,knife,knife,15,3523_lp_dnn_15_knife_10_n03041632_24646.png
cornet-s,3,964,NaN,knife,knife,15,3524_lp_dnn_15_knife_10_n03041632_13846.png
cornet-s,3,965,NaN,knife,knife,15,3525_lp_dnn_15_knife_10_n03041632_751.png
cornet-s,3,966,NaN,bear,knife,15,3526_lp_dnn_15_knife_10_n03041632_5727.png
cornet-s,3,967,NaN,knife,knife,15,3527_lp_dnn_15_knife_10_n03041632_32054.png
cornet-s,3,968,NaN,knife,knife,15,3528_lp_dnn_15_knife_10_n03041632_15099.png
cornet-s,3,969,NaN,knife,knife,15,3529_lp_dnn_15_knife_10_n03041632_83472.png
cornet-s,3,970,NaN,knife,knife,15,3530_lp_dnn_15_knife_10_n03041632_30457.png
cornet-s,3,971,NaN,clock,keyboard,15,3531_lp_dnn_15_keyboard_10_n04505470_142.png
cornet-s,3,972,NaN,knife,keyboard,15,3532_lp_dnn_15_keyboard_10_n04505470_2010.png
cornet-s,3,973,NaN,knife,keyboard,15,3533_lp_dnn_15_keyboard_10_n03085013_7752.png
cornet-s,3,974,NaN,keyboard,keyboard,15,3534_lp_dnn_15_keyboard_10_n03085013_23764.png
cornet-s,3,975,NaN,knife,keyboard,15,3535_lp_dnn_15_keyboard_10_n03085013_19203.png
cornet-s,3,976,NaN,knife,keyboard,15,3536_lp_dnn_15_keyboard_10_n04505470_650.png
cornet-s,3,977,NaN,keyboard,keyboard,15,3537_lp_dnn_15_keyboard_10_n03085013_23731.png
cornet-s,3,978,NaN,knife,keyboard,15,3538_lp_dnn_15_keyboard_10_n04505470_4909.png
cornet-s,3,979,NaN,knife,keyboard,15,3539_lp_dnn_15_keyboard_10_n04505470_3970.png
cornet-s,3,980,NaN,knife,keyboard,15,3540_lp_dnn_15_keyboard_10_n03085013_18763.png
cornet-s,3,981,NaN,knife,elephant,15,3541_lp_dnn_15_elephant_10_n02504458_6029.png
cornet-s,3,982,NaN,knife,elephant,15,3542_lp_dnn_15_elephant_10_n02504458_706.png
cornet-s,3,983,NaN,knife,elephant,15,3543_lp_dnn_15_elephant_10_n02504013_8028.png
cornet-s,3,984,NaN,knife,elephant,15,3544_lp_dnn_15_elephant_10_n02504013_10621.png
cornet-s,3,985,NaN,knife,elephant,15,3545_lp_dnn_15_elephant_10_n02504458_2068.png
cornet-s,3,986,NaN,knife,elephant,15,3546_lp_dnn_15_elephant_10_n02504458_3324.png
cornet-s,3,987,NaN,knife,elephant,15,3547_lp_dnn_15_elephant_10_n02504458_235.png
cornet-s,3,988,NaN,knife,elephant,15,3548_lp_dnn_15_elephant_10_n02504458_964.png
cornet-s,3,989,NaN,knife,elephant,15,3549_lp_dnn_15_elephant_10_n02504013_1228.png
cornet-s,3,990,NaN,knife,elephant,15,3550_lp_dnn_15_elephant_10_n02504013_4386.png
cornet-s,3,991,NaN,knife,bicycle,15,3551_lp_dnn_15_bicycle_10_n02835271_13396.png
cornet-s,3,992,NaN,knife,bicycle,15,3552_lp_dnn_15_bicycle_10_n02835271_7737.png
cornet-s,3,993,NaN,knife,bicycle,15,3553_lp_dnn_15_bicycle_10_n02835271_13965.png
cornet-s,3,994,NaN,knife,bicycle,15,3554_lp_dnn_15_bicycle_10_n03792782_7003.png
cornet-s,3,995,NaN,knife,bicycle,15,3555_lp_dnn_15_bicycle_10_n02835271_8304.png
cornet-s,3,996,NaN,knife,bicycle,15,3556_lp_dnn_15_bicycle_10_n03792782_41388.png
cornet-s,3,997,NaN,knife,bicycle,15,3557_lp_dnn_15_bicycle_10_n03792782_877.png
cornet-s,3,998,NaN,knife,bicycle,15,3558_lp_dnn_15_bicycle_10_n03792782_7099.png
cornet-s,3,999,NaN,knife,bicycle,15,3559_lp_dnn_15_bicycle_10_n02835271_3611.png
cornet-s,3,1000,NaN,knife,bicycle,15,3560_lp_dnn_15_bicycle_10_n02835271_1147.png
cornet-s,3,1001,NaN,knife,airplane,15,3561_lp_dnn_15_airplane_10_n02690373_13317.png
cornet-s,3,1002,NaN,knife,airplane,15,3562_lp_dnn_15_airplane_10_n02690373_2514.png
cornet-s,3,1003,NaN,knife,airplane,15,3563_lp_dnn_15_airplane_10_n02690373_102.png
cornet-s,3,1004,NaN,knife,airplane,15,3564_lp_dnn_15_airplane_10_n02690373_7093.png
cornet-s,3,1005,NaN,knife,airplane,15,3565_lp_dnn_15_airplane_10_n02690373_807.png
cornet-s,3,1006,NaN,knife,airplane,15,3566_lp_dnn_15_airplane_10_n02690373_1235.png
cornet-s,3,1007,NaN,knife,airplane,15,3567_lp_dnn_15_airplane_10_n02690373_5779.png
cornet-s,3,1008,NaN,knife,airplane,15,3568_lp_dnn_15_airplane_10_n02690373_1050.png
cornet-s,3,1009,NaN,knife,airplane,15,3569_lp_dnn_15_airplane_10_n02690373_2131.png
cornet-s,3,1010,NaN,knife,airplane,15,3570_lp_dnn_15_airplane_10_n02690373_18848.png
cornet-s,3,1011,NaN,knife,clock,15,3571_lp_dnn_15_clock_10_n02708093_3232.png
cornet-s,3,1012,NaN,knife,clock,15,3572_lp_dnn_15_clock_10_n04548280_6337.png
cornet-s,3,1013,NaN,knife,clock,15,3573_lp_dnn_15_clock_10_n04548280_6437.png
cornet-s,3,1014,NaN,knife,clock,15,3574_lp_dnn_15_clock_10_n04548280_487.png
cornet-s,3,1015,NaN,knife,clock,15,3575_lp_dnn_15_clock_10_n04548280_7588.png
cornet-s,3,1016,NaN,clock,clock,15,3576_lp_dnn_15_clock_10_n04548280_3299.png
cornet-s,3,1017,NaN,knife,clock,15,3577_lp_dnn_15_clock_10_n03196217_10634.png
cornet-s,3,1018,NaN,knife,clock,15,3578_lp_dnn_15_clock_10_n03196217_1275.png
cornet-s,3,1019,NaN,knife,clock,15,3579_lp_dnn_15_clock_10_n02708093_2840.png
cornet-s,3,1020,NaN,knife,clock,15,3580_lp_dnn_15_clock_10_n03196217_6268.png
cornet-s,3,1021,NaN,knife,oven,15,3581_lp_dnn_15_oven_10_n04111531_3575.png
cornet-s,3,1022,NaN,knife,oven,15,3582_lp_dnn_15_oven_10_n04111531_1165.png
cornet-s,3,1023,NaN,knife,oven,15,3583_lp_dnn_15_oven_10_n04111531_10727.png
cornet-s,3,1024,NaN,knife,oven,15,3584_lp_dnn_15_oven_10_n04111531_5950.png
cornet-s,3,1025,NaN,knife,oven,15,3585_lp_dnn_15_oven_10_n04111531_594.png
cornet-s,3,1026,NaN,knife,oven,15,3586_lp_dnn_15_oven_10_n04111531_5351.png
cornet-s,3,1027,NaN,knife,oven,15,3587_lp_dnn_15_oven_10_n04111531_2715.png
cornet-s,3,1028,NaN,knife,oven,15,3588_lp_dnn_15_oven_10_n04111531_6955.png
cornet-s,3,1029,NaN,knife,oven,15,3589_lp_dnn_15_oven_10_n04111531_887.png
cornet-s,3,1030,NaN,knife,oven,15,3590_lp_dnn_15_oven_10_n04111531_3886.png
cornet-s,3,1031,NaN,knife,chair,15,3591_lp_dnn_15_chair_10_n03376595_7071.png
cornet-s,3,1032,NaN,knife,chair,15,3592_lp_dnn_15_chair_10_n04099969_55680.png
cornet-s,3,1033,NaN,knife,chair,15,3593_lp_dnn_15_chair_10_n02791124_1582.png
cornet-s,3,1034,NaN,knife,chair,15,3594_lp_dnn_15_chair_10_n04099969_1231.png
cornet-s,3,1035,NaN,knife,chair,15,3595_lp_dnn_15_chair_10_n04429376_12100.png
cornet-s,3,1036,NaN,knife,chair,15,3596_lp_dnn_15_chair_10_n04099969_8509.png
cornet-s,3,1037,NaN,knife,chair,15,3597_lp_dnn_15_chair_10_n03376595_7568.png
cornet-s,3,1038,NaN,knife,chair,15,3598_lp_dnn_15_chair_10_n03376595_6864.png
cornet-s,3,1039,NaN,knife,chair,15,3599_lp_dnn_15_chair_10_n02791124_2358.png
cornet-s,3,1040,NaN,knife,chair,15,3600_lp_dnn_15_chair_10_n04099969_9431.png
cornet-s,3,1041,NaN,knife,bear,15,3601_lp_dnn_15_bear_10_n02133161_10024.png
cornet-s,3,1042,NaN,knife,bear,15,3602_lp_dnn_15_bear_10_n02132136_1810.png
cornet-s,3,1043,NaN,knife,bear,15,3603_lp_dnn_15_bear_10_n02134418_2649.png
cornet-s,3,1044,NaN,knife,bear,15,3604_lp_dnn_15_bear_10_n02134084_7306.png
cornet-s,3,1045,NaN,knife,bear,15,3605_lp_dnn_15_bear_10_n02134418_1022.png
cornet-s,3,1046,NaN,knife,bear,15,3606_lp_dnn_15_bear_10_n02133161_3026.png
cornet-s,3,1047,NaN,knife,bear,15,3607_lp_dnn_15_bear_10_n02133161_4398.png
cornet-s,3,1048,NaN,knife,bear,15,3608_lp_dnn_15_bear_10_n02134084_11205.png
cornet-s,3,1049,NaN,knife,bear,15,3609_lp_dnn_15_bear_10_n02134084_42216.png
cornet-s,3,1050,NaN,knife,bear,15,3610_lp_dnn_15_bear_10_n02133161_15299.png
cornet-s,3,1051,NaN,knife,boat,15,3611_lp_dnn_15_boat_10_n03662601_25969.png
cornet-s,3,1052,NaN,knife,boat,15,3612_lp_dnn_15_boat_10_n04612504_12941.png
cornet-s,3,1053,NaN,knife,boat,15,3613_lp_dnn_15_boat_10_n02951358_31030.png
cornet-s,3,1054,NaN,knife,boat,15,3614_lp_dnn_15_boat_10_n02951358_12232.png
cornet-s,3,1055,NaN,knife,boat,15,3615_lp_dnn_15_boat_10_n03662601_8344.png
cornet-s,3,1056,NaN,knife,boat,15,3616_lp_dnn_15_boat_10_n03662601_26338.png
cornet-s,3,1057,NaN,knife,boat,15,3617_lp_dnn_15_boat_10_n04612504_8711.png
cornet-s,3,1058,NaN,knife,boat,15,3618_lp_dnn_15_boat_10_n04273569_6331.png
cornet-s,3,1059,NaN,knife,boat,15,3619_lp_dnn_15_boat_10_n02951358_11401.png
cornet-s,3,1060,NaN,knife,boat,15,3620_lp_dnn_15_boat_10_n03662601_1787.png
cornet-s,3,1061,NaN,knife,cat,15,3621_lp_dnn_15_cat_10_n02125311_30629.png
cornet-s,3,1062,NaN,knife,cat,15,3622_lp_dnn_15_cat_10_n02123159_3507.png
cornet-s,3,1063,NaN,knife,cat,15,3623_lp_dnn_15_cat_10_n02124075_9743.png
cornet-s,3,1064,NaN,knife,cat,15,3624_lp_dnn_15_cat_10_n02123394_4845.png
cornet-s,3,1065,NaN,knife,cat,15,3625_lp_dnn_15_cat_10_n02125311_41798.png
cornet-s,3,1066,NaN,knife,cat,15,3626_lp_dnn_15_cat_10_n02125311_74053.png
cornet-s,3,1067,NaN,knife,cat,15,3627_lp_dnn_15_cat_10_n02123045_5549.png
cornet-s,3,1068,NaN,knife,cat,15,3628_lp_dnn_15_cat_10_n02123394_4653.png
cornet-s,3,1069,NaN,knife,cat,15,3629_lp_dnn_15_cat_10_n02123597_8113.png
cornet-s,3,1070,NaN,knife,cat,15,3630_lp_dnn_15_cat_10_n02125311_33300.png
cornet-s,3,1071,NaN,knife,bottle,15,3631_lp_dnn_15_bottle_10_n04579145_1023.png
cornet-s,3,1072,NaN,knife,bottle,15,3632_lp_dnn_15_bottle_10_n04557648_4066.png
cornet-s,3,1073,NaN,knife,bottle,15,3633_lp_dnn_15_bottle_10_n03937543_958.png
cornet-s,3,1074,NaN,bottle,bottle,15,3634_lp_dnn_15_bottle_10_n04579145_5833.png
cornet-s,3,1075,NaN,keyboard,bottle,15,3635_lp_dnn_15_bottle_10_n04560804_3495.png
cornet-s,3,1076,NaN,knife,bottle,15,3636_lp_dnn_15_bottle_10_n03983396_10309.png
cornet-s,3,1077,NaN,knife,bottle,15,3637_lp_dnn_15_bottle_10_n03983396_2975.png
cornet-s,3,1078,NaN,knife,bottle,15,3638_lp_dnn_15_bottle_10_n03983396_11670.png
cornet-s,3,1079,NaN,knife,bottle,15,3639_lp_dnn_15_bottle_10_n03937543_3060.png
cornet-s,3,1080,NaN,knife,bottle,15,3640_lp_dnn_15_bottle_10_n04579145_5755.png
cornet-s,3,1081,NaN,knife,truck,15,3641_lp_dnn_15_truck_10_n03417042_5153.png
cornet-s,3,1082,NaN,knife,truck,15,3642_lp_dnn_15_truck_10_n03417042_27587.png
cornet-s,3,1083,NaN,knife,truck,15,3643_lp_dnn_15_truck_10_n03417042_27022.png
cornet-s,3,1084,NaN,knife,truck,15,3644_lp_dnn_15_truck_10_n03417042_5229.png
cornet-s,3,1085,NaN,knife,truck,15,3645_lp_dnn_15_truck_10_n04467665_23905.png
cornet-s,3,1086,NaN,knife,truck,15,3646_lp_dnn_15_truck_10_n04467665_67984.png
cornet-s,3,1087,NaN,knife,truck,15,3647_lp_dnn_15_truck_10_n03796401_10766.png
cornet-s,3,1088,NaN,knife,truck,15,3648_lp_dnn_15_truck_10_n04467665_3125.png
cornet-s,3,1089,NaN,dog,truck,15,3649_lp_dnn_15_truck_10_n03417042_28702.png
cornet-s,3,1090,NaN,knife,truck,15,3650_lp_dnn_15_truck_10_n03417042_4292.png
cornet-s,3,1091,NaN,knife,car,15,3651_lp_dnn_15_car_10_n02814533_94474.png
cornet-s,3,1092,NaN,knife,car,15,3652_lp_dnn_15_car_10_n02814533_10594.png
cornet-s,3,1093,NaN,knife,car,15,3653_lp_dnn_15_car_10_n04285008_1949.png
cornet-s,3,1094,NaN,knife,car,15,3654_lp_dnn_15_car_10_n02814533_1061.png
cornet-s,3,1095,NaN,knife,car,15,3655_lp_dnn_15_car_10_n04285008_8017.png
cornet-s,3,1096,NaN,bottle,car,15,3656_lp_dnn_15_car_10_n04285008_2395.png
cornet-s,3,1097,NaN,knife,car,15,3657_lp_dnn_15_car_10_n02814533_3117.png
cornet-s,3,1098,NaN,knife,car,15,3658_lp_dnn_15_car_10_n02814533_458.png
cornet-s,3,1099,NaN,dog,car,15,3659_lp_dnn_15_car_10_n04285008_9832.png
cornet-s,3,1100,NaN,knife,car,15,3660_lp_dnn_15_car_10_n03100240_9586.png
cornet-s,3,1101,NaN,knife,bird,15,3661_lp_dnn_15_bird_10_n01829413_4492.png
cornet-s,3,1102,NaN,knife,bird,15,3662_lp_dnn_15_bird_10_n02009229_5764.png
cornet-s,3,1103,NaN,knife,bird,15,3663_lp_dnn_15_bird_10_n01558993_5185.png
cornet-s,3,1104,NaN,knife,bird,15,3664_lp_dnn_15_bird_10_n01514859_12981.png
cornet-s,3,1105,NaN,knife,bird,15,3665_lp_dnn_15_bird_10_n02027492_5009.png
cornet-s,3,1106,NaN,knife,bird,15,3666_lp_dnn_15_bird_10_n02028035_11961.png
cornet-s,3,1107,NaN,knife,bird,15,3667_lp_dnn_15_bird_10_n01795545_954.png
cornet-s,3,1108,NaN,knife,bird,15,3668_lp_dnn_15_bird_10_n01537544_13516.png
cornet-s,3,1109,NaN,knife,bird,15,3669_lp_dnn_15_bird_10_n02018207_5808.png
cornet-s,3,1110,NaN,knife,bird,15,3670_lp_dnn_15_bird_10_n01843383_4155.png
cornet-s,3,1111,NaN,knife,dog,15,3671_lp_dnn_15_dog_10_n02090721_4984.png
cornet-s,3,1112,NaN,knife,dog,15,3672_lp_dnn_15_dog_10_n02099601_13039.png
cornet-s,3,1113,NaN,knife,dog,15,3673_lp_dnn_15_dog_10_n02110806_12258.png
cornet-s,3,1114,NaN,bottle,dog,15,3674_lp_dnn_15_dog_10_n02099712_1192.png
cornet-s,3,1115,NaN,knife,dog,15,3675_lp_dnn_15_dog_10_n02100735_33.png
cornet-s,3,1116,NaN,knife,dog,15,3676_lp_dnn_15_dog_10_n02099712_785.png
cornet-s,3,1117,NaN,knife,dog,15,3677_lp_dnn_15_dog_10_n02104365_280.png
cornet-s,3,1118,NaN,dog,dog,15,3678_lp_dnn_15_dog_10_n02113624_1801.png
cornet-s,3,1119,NaN,knife,dog,15,3679_lp_dnn_15_dog_10_n02105251_1846.png
cornet-s,3,1120,NaN,knife,dog,15,3680_lp_dnn_15_dog_10_n02100735_11862.png
cornet-s,3,1121,NaN,knife,knife,40,3681_lp_dnn_40_knife_10_n03041632_30821.png
cornet-s,3,1122,NaN,knife,knife,40,3682_lp_dnn_40_knife_10_n03041632_20194.png
cornet-s,3,1123,NaN,knife,knife,40,3683_lp_dnn_40_knife_10_n03041632_105081.png
cornet-s,3,1124,NaN,knife,knife,40,3684_lp_dnn_40_knife_10_n03041632_96345.png
cornet-s,3,1125,NaN,knife,knife,40,3685_lp_dnn_40_knife_10_n03041632_94155.png
cornet-s,3,1126,NaN,knife,knife,40,3686_lp_dnn_40_knife_10_n03041632_102764.png
cornet-s,3,1127,NaN,knife,knife,40,3687_lp_dnn_40_knife_10_n03041632_3504.png
cornet-s,3,1128,NaN,knife,knife,40,3688_lp_dnn_40_knife_10_n03041632_8468.png
cornet-s,3,1129,NaN,knife,knife,40,3689_lp_dnn_40_knife_10_n03041632_86251.png
cornet-s,3,1130,NaN,knife,knife,40,3690_lp_dnn_40_knife_10_n03041632_13478.png
cornet-s,3,1131,NaN,knife,keyboard,40,3691_lp_dnn_40_keyboard_10_n04505470_4615.png
cornet-s,3,1132,NaN,knife,keyboard,40,3692_lp_dnn_40_keyboard_10_n03085013_14237.png
cornet-s,3,1133,NaN,knife,keyboard,40,3693_lp_dnn_40_keyboard_10_n04505470_3306.png
cornet-s,3,1134,NaN,knife,keyboard,40,3694_lp_dnn_40_keyboard_10_n04505470_4711.png
cornet-s,3,1135,NaN,knife,keyboard,40,3695_lp_dnn_40_keyboard_10_n04505470_8828.png
cornet-s,3,1136,NaN,knife,keyboard,40,3696_lp_dnn_40_keyboard_10_n04505470_5059.png
cornet-s,3,1137,NaN,knife,keyboard,40,3697_lp_dnn_40_keyboard_10_n04505470_2422.png
cornet-s,3,1138,NaN,knife,keyboard,40,3698_lp_dnn_40_keyboard_10_n04505470_2606.png
cornet-s,3,1139,NaN,knife,keyboard,40,3699_lp_dnn_40_keyboard_10_n04505470_4761.png
cornet-s,3,1140,NaN,knife,keyboard,40,3700_lp_dnn_40_keyboard_10_n03085013_22187.png
cornet-s,3,1141,NaN,knife,elephant,40,3701_lp_dnn_40_elephant_10_n02504458_3432.png
cornet-s,3,1142,NaN,knife,elephant,40,3702_lp_dnn_40_elephant_10_n02504458_6817.png
cornet-s,3,1143,NaN,knife,elephant,40,3703_lp_dnn_40_elephant_10_n02504013_5164.png
cornet-s,3,1144,NaN,knife,elephant,40,3704_lp_dnn_40_elephant_10_n02504013_10351.png
cornet-s,3,1145,NaN,knife,elephant,40,3705_lp_dnn_40_elephant_10_n02504013_1900.png
cornet-s,3,1146,NaN,knife,elephant,40,3706_lp_dnn_40_elephant_10_n02504458_5337.png
cornet-s,3,1147,NaN,knife,elephant,40,3707_lp_dnn_40_elephant_10_n02504458_5369.png
cornet-s,3,1148,NaN,knife,elephant,40,3708_lp_dnn_40_elephant_10_n02504013_4686.png
cornet-s,3,1149,NaN,knife,elephant,40,3709_lp_dnn_40_elephant_10_n02504013_1763.png
cornet-s,3,1150,NaN,knife,elephant,40,3710_lp_dnn_40_elephant_10_n02504458_1351.png
cornet-s,3,1151,NaN,knife,bicycle,40,3711_lp_dnn_40_bicycle_10_n03792782_774.png
cornet-s,3,1152,NaN,knife,bicycle,40,3712_lp_dnn_40_bicycle_10_n02835271_14914.png
cornet-s,3,1153,NaN,knife,bicycle,40,3713_lp_dnn_40_bicycle_10_n03792782_6894.png
cornet-s,3,1154,NaN,knife,bicycle,40,3714_lp_dnn_40_bicycle_10_n03792782_43328.png
cornet-s,3,1155,NaN,knife,bicycle,40,3715_lp_dnn_40_bicycle_10_n03792782_5204.png
cornet-s,3,1156,NaN,knife,bicycle,40,3716_lp_dnn_40_bicycle_10_n02835271_22263.png
cornet-s,3,1157,NaN,knife,bicycle,40,3717_lp_dnn_40_bicycle_10_n03792782_17198.png
cornet-s,3,1158,NaN,knife,bicycle,40,3718_lp_dnn_40_bicycle_10_n02835271_10271.png
cornet-s,3,1159,NaN,knife,bicycle,40,3719_lp_dnn_40_bicycle_10_n02835271_3856.png
cornet-s,3,1160,NaN,knife,bicycle,40,3720_lp_dnn_40_bicycle_10_n03792782_1424.png
cornet-s,3,1161,NaN,knife,airplane,40,3721_lp_dnn_40_airplane_10_n02690373_9535.png
cornet-s,3,1162,NaN,knife,airplane,40,3722_lp_dnn_40_airplane_10_n02690373_4706.png
cornet-s,3,1163,NaN,knife,airplane,40,3723_lp_dnn_40_airplane_10_n02690373_3840.png
cornet-s,3,1164,NaN,knife,airplane,40,3724_lp_dnn_40_airplane_10_n02690373_14117.png
cornet-s,3,1165,NaN,knife,airplane,40,3725_lp_dnn_40_airplane_10_n02690373_863.png
cornet-s,3,1166,NaN,knife,airplane,40,3726_lp_dnn_40_airplane_10_n02690373_3970.png
cornet-s,3,1167,NaN,knife,airplane,40,3727_lp_dnn_40_airplane_10_n02690373_5214.png
cornet-s,3,1168,NaN,knife,airplane,40,3728_lp_dnn_40_airplane_10_n02690373_3065.png
cornet-s,3,1169,NaN,knife,airplane,40,3729_lp_dnn_40_airplane_10_n02690373_3147.png
cornet-s,3,1170,NaN,knife,airplane,40,3730_lp_dnn_40_airplane_10_n02690373_3956.png
cornet-s,3,1171,NaN,knife,clock,40,3731_lp_dnn_40_clock_10_n02708093_5551.png
cornet-s,3,1172,NaN,knife,clock,40,3732_lp_dnn_40_clock_10_n03196217_3292.png
cornet-s,3,1173,NaN,knife,clock,40,3733_lp_dnn_40_clock_10_n03196217_9786.png
cornet-s,3,1174,NaN,knife,clock,40,3734_lp_dnn_40_clock_10_n04548280_4364.png
cornet-s,3,1175,NaN,knife,clock,40,3735_lp_dnn_40_clock_10_n03196217_6881.png
cornet-s,3,1176,NaN,knife,clock,40,3736_lp_dnn_40_clock_10_n02708093_4289.png
cornet-s,3,1177,NaN,knife,clock,40,3737_lp_dnn_40_clock_10_n03196217_157.png
cornet-s,3,1178,NaN,knife,clock,40,3738_lp_dnn_40_clock_10_n03196217_6236.png
cornet-s,3,1179,NaN,knife,clock,40,3739_lp_dnn_40_clock_10_n04548280_2169.png
cornet-s,3,1180,NaN,knife,clock,40,3740_lp_dnn_40_clock_10_n04548280_3677.png
cornet-s,3,1181,NaN,knife,oven,40,3741_lp_dnn_40_oven_10_n04111531_4155.png
cornet-s,3,1182,NaN,knife,oven,40,3742_lp_dnn_40_oven_10_n04111531_5357.png
cornet-s,3,1183,NaN,knife,oven,40,3743_lp_dnn_40_oven_10_n04111531_2074.png
cornet-s,3,1184,NaN,knife,oven,40,3744_lp_dnn_40_oven_10_n04111531_6489.png
cornet-s,3,1185,NaN,knife,oven,40,3745_lp_dnn_40_oven_10_n04111531_21248.png
cornet-s,3,1186,NaN,knife,oven,40,3746_lp_dnn_40_oven_10_n04111531_22291.png
cornet-s,3,1187,NaN,knife,oven,40,3747_lp_dnn_40_oven_10_n04111531_10974.png
cornet-s,3,1188,NaN,knife,oven,40,3748_lp_dnn_40_oven_10_n04111531_22466.png
cornet-s,3,1189,NaN,knife,oven,40,3749_lp_dnn_40_oven_10_n04111531_190.png
cornet-s,3,1190,NaN,knife,oven,40,3750_lp_dnn_40_oven_10_n04111531_23068.png
cornet-s,3,1191,NaN,knife,chair,40,3751_lp_dnn_40_chair_10_n02791124_8162.png
cornet-s,3,1192,NaN,knife,chair,40,3752_lp_dnn_40_chair_10_n02791124_4981.png
cornet-s,3,1193,NaN,knife,chair,40,3753_lp_dnn_40_chair_10_n03376595_10382.png
cornet-s,3,1194,NaN,knife,chair,40,3754_lp_dnn_40_chair_10_n03376595_9524.png
cornet-s,3,1195,NaN,knife,chair,40,3755_lp_dnn_40_chair_10_n03376595_1601.png
cornet-s,3,1196,NaN,knife,chair,40,3756_lp_dnn_40_chair_10_n04099969_2316.png
cornet-s,3,1197,NaN,knife,chair,40,3757_lp_dnn_40_chair_10_n03376595_3624.png
cornet-s,3,1198,NaN,knife,chair,40,3758_lp_dnn_40_chair_10_n04099969_1409.png
cornet-s,3,1199,NaN,knife,chair,40,3759_lp_dnn_40_chair_10_n03376595_1719.png
cornet-s,3,1200,NaN,knife,chair,40,3760_lp_dnn_40_chair_10_n02791124_15934.png
cornet-s,3,1201,NaN,knife,bear,40,3761_lp_dnn_40_bear_10_n02132136_35749.png
cornet-s,3,1202,NaN,knife,bear,40,3762_lp_dnn_40_bear_10_n02133161_3085.png
cornet-s,3,1203,NaN,knife,bear,40,3763_lp_dnn_40_bear_10_n02134418_2434.png
cornet-s,3,1204,NaN,knife,bear,40,3764_lp_dnn_40_bear_10_n02133161_92.png
cornet-s,3,1205,NaN,knife,bear,40,3765_lp_dnn_40_bear_10_n02134418_10576.png
cornet-s,3,1206,NaN,knife,bear,40,3766_lp_dnn_40_bear_10_n02134084_5475.png
cornet-s,3,1207,NaN,knife,bear,40,3767_lp_dnn_40_bear_10_n02134084_12917.png
cornet-s,3,1208,NaN,knife,bear,40,3768_lp_dnn_40_bear_10_n02132136_892.png
cornet-s,3,1209,NaN,knife,bear,40,3769_lp_dnn_40_bear_10_n02133161_8662.png
cornet-s,3,1210,NaN,knife,bear,40,3770_lp_dnn_40_bear_10_n02132136_18001.png
cornet-s,3,1211,NaN,knife,boat,40,3771_lp_dnn_40_boat_10_n04273569_7296.png
cornet-s,3,1212,NaN,knife,boat,40,3772_lp_dnn_40_boat_10_n03662601_15781.png
cornet-s,3,1213,NaN,knife,boat,40,3773_lp_dnn_40_boat_10_n02951358_5952.png
cornet-s,3,1214,NaN,knife,boat,40,3774_lp_dnn_40_boat_10_n03662601_6221.png
cornet-s,3,1215,NaN,knife,boat,40,3775_lp_dnn_40_boat_10_n04612504_6611.png
cornet-s,3,1216,NaN,knife,boat,40,3776_lp_dnn_40_boat_10_n03344393_5712.png
cornet-s,3,1217,NaN,knife,boat,40,3777_lp_dnn_40_boat_10_n03344393_3103.png
cornet-s,3,1218,NaN,knife,boat,40,3778_lp_dnn_40_boat_10_n04273569_9677.png
cornet-s,3,1219,NaN,knife,boat,40,3779_lp_dnn_40_boat_10_n04273569_13524.png
cornet-s,3,1220,NaN,knife,boat,40,3780_lp_dnn_40_boat_10_n04612504_14113.png
cornet-s,3,1221,NaN,knife,cat,40,3781_lp_dnn_40_cat_10_n02123045_10866.png
cornet-s,3,1222,NaN,knife,cat,40,3782_lp_dnn_40_cat_10_n02123045_12206.png
cornet-s,3,1223,NaN,knife,cat,40,3783_lp_dnn_40_cat_10_n02125311_28447.png
cornet-s,3,1224,NaN,knife,cat,40,3784_lp_dnn_40_cat_10_n02123045_7248.png
cornet-s,3,1225,NaN,knife,cat,40,3785_lp_dnn_40_cat_10_n02123597_7009.png
cornet-s,3,1226,NaN,knife,cat,40,3786_lp_dnn_40_cat_10_n02123159_7816.png
cornet-s,3,1227,NaN,knife,cat,40,3787_lp_dnn_40_cat_10_n02123394_2411.png
cornet-s,3,1228,NaN,knife,cat,40,3788_lp_dnn_40_cat_10_n02123045_1580.png
cornet-s,3,1229,NaN,knife,cat,40,3789_lp_dnn_40_cat_10_n02125311_19891.png
cornet-s,3,1230,NaN,knife,cat,40,3790_lp_dnn_40_cat_10_n02123394_9015.png
cornet-s,3,1231,NaN,knife,bottle,40,3791_lp_dnn_40_bottle_10_n02823428_3469.png
cornet-s,3,1232,NaN,knife,bottle,40,3792_lp_dnn_40_bottle_10_n03937543_7230.png
cornet-s,3,1233,NaN,knife,bottle,40,3793_lp_dnn_40_bottle_10_n02823428_7034.png
cornet-s,3,1234,NaN,knife,bottle,40,3794_lp_dnn_40_bottle_10_n04591713_2903.png
cornet-s,3,1235,NaN,knife,bottle,40,3795_lp_dnn_40_bottle_10_n02823428_8307.png
cornet-s,3,1236,NaN,knife,bottle,40,3796_lp_dnn_40_bottle_10_n02823428_2657.png
cornet-s,3,1237,NaN,knife,bottle,40,3797_lp_dnn_40_bottle_10_n04557648_4663.png
cornet-s,3,1238,NaN,knife,bottle,40,3798_lp_dnn_40_bottle_10_n02823428_636.png
cornet-s,3,1239,NaN,knife,bottle,40,3799_lp_dnn_40_bottle_10_n03983396_5647.png
cornet-s,3,1240,NaN,knife,bottle,40,3800_lp_dnn_40_bottle_10_n02823428_4097.png
cornet-s,3,1241,NaN,knife,truck,40,3801_lp_dnn_40_truck_10_n04467665_1425.png
cornet-s,3,1242,NaN,knife,truck,40,3802_lp_dnn_40_truck_10_n03796401_10208.png
cornet-s,3,1243,NaN,knife,truck,40,3803_lp_dnn_40_truck_10_n04467665_7180.png
cornet-s,3,1244,NaN,knife,truck,40,3804_lp_dnn_40_truck_10_n03796401_5729.png
cornet-s,3,1245,NaN,knife,truck,40,3805_lp_dnn_40_truck_10_n03796401_22759.png
cornet-s,3,1246,NaN,knife,truck,40,3806_lp_dnn_40_truck_10_n03417042_2960.png
cornet-s,3,1247,NaN,knife,truck,40,3807_lp_dnn_40_truck_10_n03796401_1691.png
cornet-s,3,1248,NaN,knife,truck,40,3808_lp_dnn_40_truck_10_n04467665_79576.png
cornet-s,3,1249,NaN,knife,truck,40,3809_lp_dnn_40_truck_10_n03417042_5634.png
cornet-s,3,1250,NaN,knife,truck,40,3810_lp_dnn_40_truck_10_n03417042_16166.png
cornet-s,3,1251,NaN,knife,car,40,3811_lp_dnn_40_car_10_n03100240_8203.png
cornet-s,3,1252,NaN,knife,car,40,3812_lp_dnn_40_car_10_n04285008_16647.png
cornet-s,3,1253,NaN,knife,car,40,3813_lp_dnn_40_car_10_n02814533_35.png
cornet-s,3,1254,NaN,knife,car,40,3814_lp_dnn_40_car_10_n03100240_11972.png
cornet-s,3,1255,NaN,knife,car,40,3815_lp_dnn_40_car_10_n03100240_16598.png
cornet-s,3,1256,NaN,knife,car,40,3816_lp_dnn_40_car_10_n04285008_12423.png
cornet-s,3,1257,NaN,knife,car,40,3817_lp_dnn_40_car_10_n03100240_2640.png
cornet-s,3,1258,NaN,knife,car,40,3818_lp_dnn_40_car_10_n03100240_5172.png
cornet-s,3,1259,NaN,knife,car,40,3819_lp_dnn_40_car_10_n02814533_10911.png
cornet-s,3,1260,NaN,knife,car,40,3820_lp_dnn_40_car_10_n02814533_25129.png
cornet-s,3,1261,NaN,knife,bird,40,3821_lp_dnn_40_bird_10_n01820546_3352.png
cornet-s,3,1262,NaN,knife,bird,40,3822_lp_dnn_40_bird_10_n01843383_3038.png
cornet-s,3,1263,NaN,knife,bird,40,3823_lp_dnn_40_bird_10_n02051845_12655.png
cornet-s,3,1264,NaN,knife,bird,40,3824_lp_dnn_40_bird_10_n01820546_3933.png
cornet-s,3,1265,NaN,knife,bird,40,3825_lp_dnn_40_bird_10_n02056570_1195.png
cornet-s,3,1266,NaN,knife,bird,40,3826_lp_dnn_40_bird_10_n01514859_13183.png
cornet-s,3,1267,NaN,knife,bird,40,3827_lp_dnn_40_bird_10_n02056570_952.png
cornet-s,3,1268,NaN,knife,bird,40,3828_lp_dnn_40_bird_10_n01537544_25226.png
cornet-s,3,1269,NaN,knife,bird,40,3829_lp_dnn_40_bird_10_n01797886_13326.png
cornet-s,3,1270,NaN,knife,bird,40,3830_lp_dnn_40_bird_10_n02017213_6182.png
cornet-s,3,1271,NaN,knife,dog,40,3831_lp_dnn_40_dog_10_n02108915_4214.png
cornet-s,3,1272,NaN,knife,dog,40,3832_lp_dnn_40_dog_10_n02113712_984.png
cornet-s,3,1273,NaN,knife,dog,40,3833_lp_dnn_40_dog_10_n02086910_14217.png
cornet-s,3,1274,NaN,knife,dog,40,3834_lp_dnn_40_dog_10_n02099712_5790.png
cornet-s,3,1275,NaN,knife,dog,40,3835_lp_dnn_40_dog_10_n02109525_11732.png
cornet-s,3,1276,NaN,knife,dog,40,3836_lp_dnn_40_dog_10_n02096051_7.png
cornet-s,3,1277,NaN,knife,dog,40,3837_lp_dnn_40_dog_10_n02093256_20496.png
cornet-s,3,1278,NaN,knife,dog,40,3838_lp_dnn_40_dog_10_n02106166_2940.png
cornet-s,3,1279,NaN,knife,dog,40,3839_lp_dnn_40_dog_10_n02086079_16636.png
cornet-s,3,1280,NaN,knife,dog,40,3840_lp_dnn_40_dog_10_n02100236_806.png
