subj,session,trial,rt,object_response,category,condition,imagename
cornet-s,5,1,NaN,knife,knife,0,5121_lp_dnn_0_knife_10_n03041632_102887.png
cornet-s,5,2,NaN,knife,knife,0,5122_lp_dnn_0_knife_10_n03041632_4305.png
cornet-s,5,3,NaN,knife,knife,0,5123_lp_dnn_0_knife_10_n03041632_18766.png
cornet-s,5,4,NaN,knife,knife,0,5124_lp_dnn_0_knife_10_n03041632_36277.png
cornet-s,5,5,NaN,knife,knife,0,5125_lp_dnn_0_knife_10_n03041632_26236.png
cornet-s,5,6,NaN,chair,knife,0,5126_lp_dnn_0_knife_10_n03041632_1143.png
cornet-s,5,7,NaN,knife,knife,0,5127_lp_dnn_0_knife_10_n03041632_105080.png
cornet-s,5,8,NaN,knife,knife,0,5128_lp_dnn_0_knife_10_n03041632_2630.png
cornet-s,5,9,NaN,knife,knife,0,5129_lp_dnn_0_knife_10_n03041632_131.png
cornet-s,5,10,NaN,knife,knife,0,5130_lp_dnn_0_knife_10_n03041632_8321.png
cornet-s,5,11,NaN,keyboard,keyboard,0,5131_lp_dnn_0_keyboard_10_n04505470_326.png
cornet-s,5,12,NaN,keyboard,keyboard,0,5132_lp_dnn_0_keyboard_10_n04505470_3391.png
cornet-s,5,13,NaN,keyboard,keyboard,0,5133_lp_dnn_0_keyboard_10_n03085013_14279.png
cornet-s,5,14,NaN,keyboard,keyboard,0,5134_lp_dnn_0_keyboard_10_n04505470_3234.png
cornet-s,5,15,NaN,keyboard,keyboard,0,5135_lp_dnn_0_keyboard_10_n04505470_3659.png
cornet-s,5,16,NaN,keyboard,keyboard,0,5136_lp_dnn_0_keyboard_10_n03085013_23885.png
cornet-s,5,17,NaN,keyboard,keyboard,0,5137_lp_dnn_0_keyboard_10_n03085013_23291.png
cornet-s,5,18,NaN,keyboard,keyboard,0,5138_lp_dnn_0_keyboard_10_n03085013_21488.png
cornet-s,5,19,NaN,keyboard,keyboard,0,5139_lp_dnn_0_keyboard_10_n03085013_25671.png
cornet-s,5,20,NaN,keyboard,keyboard,0,5140_lp_dnn_0_keyboard_10_n04505470_4166.png
cornet-s,5,21,NaN,elephant,elephant,0,5141_lp_dnn_0_elephant_10_n02504458_133.png
cornet-s,5,22,NaN,elephant,elephant,0,5142_lp_dnn_0_elephant_10_n02504458_10603.png
cornet-s,5,23,NaN,elephant,elephant,0,5143_lp_dnn_0_elephant_10_n02504458_6079.png
cornet-s,5,24,NaN,elephant,elephant,0,5144_lp_dnn_0_elephant_10_n02504458_6729.png
cornet-s,5,25,NaN,elephant,elephant,0,5145_lp_dnn_0_elephant_10_n02504458_1138.png
cornet-s,5,26,NaN,elephant,elephant,0,5146_lp_dnn_0_elephant_10_n02504458_3381.png
cornet-s,5,27,NaN,elephant,elephant,0,5147_lp_dnn_0_elephant_10_n02504013_1185.png
cornet-s,5,28,NaN,elephant,elephant,0,5148_lp_dnn_0_elephant_10_n02504013_6619.png
cornet-s,5,29,NaN,elephant,elephant,0,5149_lp_dnn_0_elephant_10_n02504458_12439.png
cornet-s,5,30,NaN,elephant,elephant,0,5150_lp_dnn_0_elephant_10_n02504458_800.png
cornet-s,5,31,NaN,bicycle,bicycle,0,5151_lp_dnn_0_bicycle_10_n03792782_18964.png
cornet-s,5,32,NaN,bicycle,bicycle,0,5152_lp_dnn_0_bicycle_10_n02835271_1851.png
cornet-s,5,33,NaN,bicycle,bicycle,0,5153_lp_dnn_0_bicycle_10_n02835271_5861.png
cornet-s,5,34,NaN,bicycle,bicycle,0,5154_lp_dnn_0_bicycle_10_n02835271_22061.png
cornet-s,5,35,NaN,bicycle,bicycle,0,5155_lp_dnn_0_bicycle_10_n02835271_20959.png
cornet-s,5,36,NaN,bicycle,bicycle,0,5156_lp_dnn_0_bicycle_10_n03792782_9280.png
cornet-s,5,37,NaN,bicycle,bicycle,0,5157_lp_dnn_0_bicycle_10_n02835271_1536.png
cornet-s,5,38,NaN,bicycle,bicycle,0,5158_lp_dnn_0_bicycle_10_n03792782_19295.png
cornet-s,5,39,NaN,bicycle,bicycle,0,5159_lp_dnn_0_bicycle_10_n02835271_22206.png
cornet-s,5,40,NaN,bicycle,bicycle,0,5160_lp_dnn_0_bicycle_10_n03792782_13110.png
cornet-s,5,41,NaN,airplane,airplane,0,5161_lp_dnn_0_airplane_10_n02690373_2293.png
cornet-s,5,42,NaN,airplane,airplane,0,5162_lp_dnn_0_airplane_10_n02690373_5870.png
cornet-s,5,43,NaN,airplane,airplane,0,5163_lp_dnn_0_airplane_10_n02690373_3139.png
cornet-s,5,44,NaN,airplane,airplane,0,5164_lp_dnn_0_airplane_10_n02690373_5082.png
cornet-s,5,45,NaN,airplane,airplane,0,5165_lp_dnn_0_airplane_10_n02690373_2075.png
cornet-s,5,46,NaN,airplane,airplane,0,5166_lp_dnn_0_airplane_10_n02690373_5029.png
cornet-s,5,47,NaN,airplane,airplane,0,5167_lp_dnn_0_airplane_10_n02690373_18479.png
cornet-s,5,48,NaN,airplane,airplane,0,5168_lp_dnn_0_airplane_10_n02690373_5055.png
cornet-s,5,49,NaN,airplane,airplane,0,5169_lp_dnn_0_airplane_10_n02690373_6319.png
cornet-s,5,50,NaN,airplane,airplane,0,5170_lp_dnn_0_airplane_10_n02690373_3096.png
cornet-s,5,51,NaN,clock,clock,0,5171_lp_dnn_0_clock_10_n04548280_7490.png
cornet-s,5,52,NaN,clock,clock,0,5172_lp_dnn_0_clock_10_n03196217_7012.png
cornet-s,5,53,NaN,clock,clock,0,5173_lp_dnn_0_clock_10_n04548280_4181.png
cornet-s,5,54,NaN,clock,clock,0,5174_lp_dnn_0_clock_10_n04548280_3098.png
cornet-s,5,55,NaN,clock,clock,0,5175_lp_dnn_0_clock_10_n04548280_532.png
cornet-s,5,56,NaN,clock,clock,0,5176_lp_dnn_0_clock_10_n03196217_743.png
cornet-s,5,57,NaN,chair,clock,0,5177_lp_dnn_0_clock_10_n02708093_8309.png
cornet-s,5,58,NaN,clock,clock,0,5178_lp_dnn_0_clock_10_n03196217_6741.png
cornet-s,5,59,NaN,clock,clock,0,5179_lp_dnn_0_clock_10_n04548280_6814.png
cornet-s,5,60,NaN,clock,clock,0,5180_lp_dnn_0_clock_10_n04548280_607.png
cornet-s,5,61,NaN,oven,oven,0,5181_lp_dnn_0_oven_10_n04111531_1004.png
cornet-s,5,62,NaN,oven,oven,0,5182_lp_dnn_0_oven_10_n04111531_11470.png
cornet-s,5,63,NaN,oven,oven,0,5183_lp_dnn_0_oven_10_n04111531_16463.png
cornet-s,5,64,NaN,oven,oven,0,5184_lp_dnn_0_oven_10_n04111531_13391.png
cornet-s,5,65,NaN,oven,oven,0,5185_lp_dnn_0_oven_10_n04111531_10313.png
cornet-s,5,66,NaN,oven,oven,0,5186_lp_dnn_0_oven_10_n04111531_14876.png
cornet-s,5,67,NaN,knife,oven,0,5187_lp_dnn_0_oven_10_n04111531_92.png
cornet-s,5,68,NaN,oven,oven,0,5188_lp_dnn_0_oven_10_n04111531_2133.png
cornet-s,5,69,NaN,oven,oven,0,5189_lp_dnn_0_oven_10_n04111531_669.png
cornet-s,5,70,NaN,oven,oven,0,5190_lp_dnn_0_oven_10_n04111531_15296.png
cornet-s,5,71,NaN,chair,chair,0,5191_lp_dnn_0_chair_10_n04099969_8873.png
cornet-s,5,72,NaN,chair,chair,0,5192_lp_dnn_0_chair_10_n03376595_7699.png
cornet-s,5,73,NaN,bottle,chair,0,5193_lp_dnn_0_chair_10_n04429376_48665.png
cornet-s,5,74,NaN,chair,chair,0,5194_lp_dnn_0_chair_10_n02791124_12591.png
cornet-s,5,75,NaN,chair,chair,0,5195_lp_dnn_0_chair_10_n04099969_6241.png
cornet-s,5,76,NaN,chair,chair,0,5196_lp_dnn_0_chair_10_n02791124_4437.png
cornet-s,5,77,NaN,chair,chair,0,5197_lp_dnn_0_chair_10_n02791124_3476.png
cornet-s,5,78,NaN,chair,chair,0,5198_lp_dnn_0_chair_10_n04099969_2523.png
cornet-s,5,79,NaN,chair,chair,0,5199_lp_dnn_0_chair_10_n02791124_11404.png
cornet-s,5,80,NaN,chair,chair,0,5200_lp_dnn_0_chair_10_n04429376_15847.png
cornet-s,5,81,NaN,bear,bear,0,5201_lp_dnn_0_bear_10_n02133161_16808.png
cornet-s,5,82,NaN,bear,bear,0,5202_lp_dnn_0_bear_10_n02134418_559.png
cornet-s,5,83,NaN,bear,bear,0,5203_lp_dnn_0_bear_10_n02132136_16330.png
cornet-s,5,84,NaN,bear,bear,0,5204_lp_dnn_0_bear_10_n02132136_10979.png
cornet-s,5,85,NaN,bear,bear,0,5205_lp_dnn_0_bear_10_n02134418_10715.png
cornet-s,5,86,NaN,bear,bear,0,5206_lp_dnn_0_bear_10_n02133161_15593.png
cornet-s,5,87,NaN,bear,bear,0,5207_lp_dnn_0_bear_10_n02134418_1425.png
cornet-s,5,88,NaN,bear,bear,0,5208_lp_dnn_0_bear_10_n02134084_19775.png
cornet-s,5,89,NaN,bear,bear,0,5209_lp_dnn_0_bear_10_n02133161_8493.png
cornet-s,5,90,NaN,bear,bear,0,5210_lp_dnn_0_bear_10_n02134084_15118.png
cornet-s,5,91,NaN,boat,boat,0,5211_lp_dnn_0_boat_10_n04273569_1423.png
cornet-s,5,92,NaN,boat,boat,0,5212_lp_dnn_0_boat_10_n04273569_27387.png
cornet-s,5,93,NaN,boat,boat,0,5213_lp_dnn_0_boat_10_n03662601_6893.png
cornet-s,5,94,NaN,boat,boat,0,5214_lp_dnn_0_boat_10_n02951358_13561.png
cornet-s,5,95,NaN,boat,boat,0,5215_lp_dnn_0_boat_10_n02951358_7923.png
cornet-s,5,96,NaN,boat,boat,0,5216_lp_dnn_0_boat_10_n04273569_5426.png
cornet-s,5,97,NaN,boat,boat,0,5217_lp_dnn_0_boat_10_n03662601_16825.png
cornet-s,5,98,NaN,boat,boat,0,5218_lp_dnn_0_boat_10_n02951358_1116.png
cornet-s,5,99,NaN,boat,boat,0,5219_lp_dnn_0_boat_10_n03344393_9661.png
cornet-s,5,100,NaN,boat,boat,0,5220_lp_dnn_0_boat_10_n03344393_2148.png
cornet-s,5,101,NaN,cat,cat,0,5221_lp_dnn_0_cat_10_n02123045_13039.png
cornet-s,5,102,NaN,cat,cat,0,5222_lp_dnn_0_cat_10_n02123597_6405.png
cornet-s,5,103,NaN,cat,cat,0,5223_lp_dnn_0_cat_10_n02125311_22340.png
cornet-s,5,104,NaN,cat,cat,0,5224_lp_dnn_0_cat_10_n02123394_537.png
cornet-s,5,105,NaN,cat,cat,0,5225_lp_dnn_0_cat_10_n02123045_6286.png
cornet-s,5,106,NaN,cat,cat,0,5226_lp_dnn_0_cat_10_n02124075_5231.png
cornet-s,5,107,NaN,cat,cat,0,5227_lp_dnn_0_cat_10_n02123159_7974.png
cornet-s,5,108,NaN,cat,cat,0,5228_lp_dnn_0_cat_10_n02123045_2852.png
cornet-s,5,109,NaN,cat,cat,0,5229_lp_dnn_0_cat_10_n02123597_4910.png
cornet-s,5,110,NaN,cat,cat,0,5230_lp_dnn_0_cat_10_n02123045_1812.png
cornet-s,5,111,NaN,bottle,bottle,0,5231_lp_dnn_0_bottle_10_n03937543_3108.png
cornet-s,5,112,NaN,bottle,bottle,0,5232_lp_dnn_0_bottle_10_n03937543_1053.png
cornet-s,5,113,NaN,bottle,bottle,0,5233_lp_dnn_0_bottle_10_n04591713_5366.png
cornet-s,5,114,NaN,bottle,bottle,0,5234_lp_dnn_0_bottle_10_n03937543_5428.png
cornet-s,5,115,NaN,bottle,bottle,0,5235_lp_dnn_0_bottle_10_n02823428_1527.png
cornet-s,5,116,NaN,bottle,bottle,0,5236_lp_dnn_0_bottle_10_n03983396_2115.png
cornet-s,5,117,NaN,bottle,bottle,0,5237_lp_dnn_0_bottle_10_n03983396_11601.png
cornet-s,5,118,NaN,bottle,bottle,0,5238_lp_dnn_0_bottle_10_n04579145_260.png
cornet-s,5,119,NaN,bottle,bottle,0,5239_lp_dnn_0_bottle_10_n03983396_19926.png
cornet-s,5,120,NaN,bottle,bottle,0,5240_lp_dnn_0_bottle_10_n04560804_7375.png
cornet-s,5,121,NaN,truck,truck,0,5241_lp_dnn_0_truck_10_n04467665_68764.png
cornet-s,5,122,NaN,truck,truck,0,5242_lp_dnn_0_truck_10_n03417042_3101.png
cornet-s,5,123,NaN,truck,truck,0,5243_lp_dnn_0_truck_10_n03796401_4168.png
cornet-s,5,124,NaN,truck,truck,0,5244_lp_dnn_0_truck_10_n04467665_42823.png
cornet-s,5,125,NaN,truck,truck,0,5245_lp_dnn_0_truck_10_n03417042_11527.png
cornet-s,5,126,NaN,truck,truck,0,5246_lp_dnn_0_truck_10_n03796401_1023.png
cornet-s,5,127,NaN,truck,truck,0,5247_lp_dnn_0_truck_10_n04467665_28424.png
cornet-s,5,128,NaN,truck,truck,0,5248_lp_dnn_0_truck_10_n03796401_3273.png
cornet-s,5,129,NaN,truck,truck,0,5249_lp_dnn_0_truck_10_n04467665_22879.png
cornet-s,5,130,NaN,truck,truck,0,5250_lp_dnn_0_truck_10_n03417042_6646.png
cornet-s,5,131,NaN,car,car,0,5251_lp_dnn_0_car_10_n03100240_9077.png
cornet-s,5,132,NaN,car,car,0,5252_lp_dnn_0_car_10_n04285008_3015.png
cornet-s,5,133,NaN,car,car,0,5253_lp_dnn_0_car_10_n04285008_17149.png
cornet-s,5,134,NaN,car,car,0,5254_lp_dnn_0_car_10_n03100240_9470.png
cornet-s,5,135,NaN,car,car,0,5255_lp_dnn_0_car_10_n02814533_1754.png
cornet-s,5,136,NaN,car,car,0,5256_lp_dnn_0_car_10_n03100240_3543.png
cornet-s,5,137,NaN,car,car,0,5257_lp_dnn_0_car_10_n02814533_49380.png
cornet-s,5,138,NaN,car,car,0,5258_lp_dnn_0_car_10_n03100240_2335.png
cornet-s,5,139,NaN,car,car,0,5259_lp_dnn_0_car_10_n02814533_14484.png
cornet-s,5,140,NaN,truck,car,0,5260_lp_dnn_0_car_10_n02814533_31170.png
cornet-s,5,141,NaN,bird,bird,0,5261_lp_dnn_0_bird_10_n01833805_7812.png
cornet-s,5,142,NaN,bird,bird,0,5262_lp_dnn_0_bird_10_n01796340_27329.png
cornet-s,5,143,NaN,bird,bird,0,5263_lp_dnn_0_bird_10_n02051845_9653.png
cornet-s,5,144,NaN,bird,bird,0,5264_lp_dnn_0_bird_10_n02009912_36443.png
cornet-s,5,145,NaN,bird,bird,0,5265_lp_dnn_0_bird_10_n02027492_7198.png
cornet-s,5,146,NaN,bird,bird,0,5266_lp_dnn_0_bird_10_n02028035_26656.png
cornet-s,5,147,NaN,bird,bird,0,5267_lp_dnn_0_bird_10_n02011460_2466.png
cornet-s,5,148,NaN,bird,bird,0,5268_lp_dnn_0_bird_10_n02002724_585.png
cornet-s,5,149,NaN,bird,bird,0,5269_lp_dnn_0_bird_10_n02007558_6572.png
cornet-s,5,150,NaN,bird,bird,0,5270_lp_dnn_0_bird_10_n02011460_18684.png
cornet-s,5,151,NaN,dog,dog,0,5271_lp_dnn_0_dog_10_n02093754_4854.png
cornet-s,5,152,NaN,chair,dog,0,5272_lp_dnn_0_dog_10_n02092339_125.png
cornet-s,5,153,NaN,dog,dog,0,5273_lp_dnn_0_dog_10_n02106166_16999.png
cornet-s,5,154,NaN,dog,dog,0,5274_lp_dnn_0_dog_10_n02107908_10445.png
cornet-s,5,155,NaN,cat,dog,0,5275_lp_dnn_0_dog_10_n02094258_1943.png
cornet-s,5,156,NaN,dog,dog,0,5276_lp_dnn_0_dog_10_n02094114_4875.png
cornet-s,5,157,NaN,dog,dog,0,5277_lp_dnn_0_dog_10_n02086646_1952.png
cornet-s,5,158,NaN,bicycle,dog,0,5278_lp_dnn_0_dog_10_n02106550_9599.png
cornet-s,5,159,NaN,dog,dog,0,5279_lp_dnn_0_dog_10_n02105855_15035.png
cornet-s,5,160,NaN,dog,dog,0,5280_lp_dnn_0_dog_10_n02091635_4679.png
cornet-s,5,161,NaN,knife,knife,1,5281_lp_dnn_1_knife_10_n03041632_45569.png
cornet-s,5,162,NaN,knife,knife,1,5282_lp_dnn_1_knife_10_n03041632_383.png
cornet-s,5,163,NaN,knife,knife,1,5283_lp_dnn_1_knife_10_n03041632_18748.png
cornet-s,5,164,NaN,knife,knife,1,5284_lp_dnn_1_knife_10_n03041632_25603.png
cornet-s,5,165,NaN,knife,knife,1,5285_lp_dnn_1_knife_10_n03041632_6446.png
cornet-s,5,166,NaN,knife,knife,1,5286_lp_dnn_1_knife_10_n03041632_15754.png
cornet-s,5,167,NaN,knife,knife,1,5287_lp_dnn_1_knife_10_n03041632_86338.png
cornet-s,5,168,NaN,knife,knife,1,5288_lp_dnn_1_knife_10_n03041632_26053.png
cornet-s,5,169,NaN,bicycle,knife,1,5289_lp_dnn_1_knife_10_n03041632_91582.png
cornet-s,5,170,NaN,knife,knife,1,5290_lp_dnn_1_knife_10_n03041632_38996.png
cornet-s,5,171,NaN,keyboard,keyboard,1,5291_lp_dnn_1_keyboard_10_n04505470_930.png
cornet-s,5,172,NaN,keyboard,keyboard,1,5292_lp_dnn_1_keyboard_10_n04505470_2358.png
cornet-s,5,173,NaN,keyboard,keyboard,1,5293_lp_dnn_1_keyboard_10_n04505470_4944.png
cornet-s,5,174,NaN,keyboard,keyboard,1,5294_lp_dnn_1_keyboard_10_n03085013_7091.png
cornet-s,5,175,NaN,keyboard,keyboard,1,5295_lp_dnn_1_keyboard_10_n03085013_21971.png
cornet-s,5,176,NaN,keyboard,keyboard,1,5296_lp_dnn_1_keyboard_10_n03085013_24087.png
cornet-s,5,177,NaN,keyboard,keyboard,1,5297_lp_dnn_1_keyboard_10_n04505470_1440.png
cornet-s,5,178,NaN,keyboard,keyboard,1,5298_lp_dnn_1_keyboard_10_n04505470_4748.png
cornet-s,5,179,NaN,keyboard,keyboard,1,5299_lp_dnn_1_keyboard_10_n03085013_18685.png
cornet-s,5,180,NaN,keyboard,keyboard,1,5300_lp_dnn_1_keyboard_10_n03085013_22698.png
cornet-s,5,181,NaN,elephant,elephant,1,5301_lp_dnn_1_elephant_10_n02504013_6999.png
cornet-s,5,182,NaN,elephant,elephant,1,5302_lp_dnn_1_elephant_10_n02504458_5908.png
cornet-s,5,183,NaN,elephant,elephant,1,5303_lp_dnn_1_elephant_10_n02504458_5774.png
cornet-s,5,184,NaN,elephant,elephant,1,5304_lp_dnn_1_elephant_10_n02504013_5763.png
cornet-s,5,185,NaN,elephant,elephant,1,5305_lp_dnn_1_elephant_10_n02504458_8414.png
cornet-s,5,186,NaN,elephant,elephant,1,5306_lp_dnn_1_elephant_10_n02504013_1803.png
cornet-s,5,187,NaN,elephant,elephant,1,5307_lp_dnn_1_elephant_10_n02504013_6742.png
cornet-s,5,188,NaN,elephant,elephant,1,5308_lp_dnn_1_elephant_10_n02504013_21616.png
cornet-s,5,189,NaN,elephant,elephant,1,5309_lp_dnn_1_elephant_10_n02504458_3234.png
cornet-s,5,190,NaN,elephant,elephant,1,5310_lp_dnn_1_elephant_10_n02504458_4806.png
cornet-s,5,191,NaN,bicycle,bicycle,1,5311_lp_dnn_1_bicycle_10_n03792782_70708.png
cornet-s,5,192,NaN,bicycle,bicycle,1,5312_lp_dnn_1_bicycle_10_n03792782_11720.png
cornet-s,5,193,NaN,bicycle,bicycle,1,5313_lp_dnn_1_bicycle_10_n03792782_5966.png
cornet-s,5,194,NaN,bicycle,bicycle,1,5314_lp_dnn_1_bicycle_10_n02835271_22143.png
cornet-s,5,195,NaN,bicycle,bicycle,1,5315_lp_dnn_1_bicycle_10_n03792782_10437.png
cornet-s,5,196,NaN,bicycle,bicycle,1,5316_lp_dnn_1_bicycle_10_n02835271_10596.png
cornet-s,5,197,NaN,bicycle,bicycle,1,5317_lp_dnn_1_bicycle_10_n02835271_8105.png
cornet-s,5,198,NaN,bicycle,bicycle,1,5318_lp_dnn_1_bicycle_10_n02835271_9296.png
cornet-s,5,199,NaN,bicycle,bicycle,1,5319_lp_dnn_1_bicycle_10_n03792782_37212.png
cornet-s,5,200,NaN,bicycle,bicycle,1,5320_lp_dnn_1_bicycle_10_n02835271_5196.png
cornet-s,5,201,NaN,airplane,airplane,1,5321_lp_dnn_1_airplane_10_n02690373_1360.png
cornet-s,5,202,NaN,airplane,airplane,1,5322_lp_dnn_1_airplane_10_n02690373_6046.png
cornet-s,5,203,NaN,airplane,airplane,1,5323_lp_dnn_1_airplane_10_n02690373_1946.png
cornet-s,5,204,NaN,airplane,airplane,1,5324_lp_dnn_1_airplane_10_n02690373_5581.png
cornet-s,5,205,NaN,airplane,airplane,1,5325_lp_dnn_1_airplane_10_n02690373_4024.png
cornet-s,5,206,NaN,airplane,airplane,1,5326_lp_dnn_1_airplane_10_n02690373_17937.png
cornet-s,5,207,NaN,airplane,airplane,1,5327_lp_dnn_1_airplane_10_n02690373_2967.png
cornet-s,5,208,NaN,airplane,airplane,1,5328_lp_dnn_1_airplane_10_n02690373_1819.png
cornet-s,5,209,NaN,airplane,airplane,1,5329_lp_dnn_1_airplane_10_n02690373_9939.png
cornet-s,5,210,NaN,boat,airplane,1,5330_lp_dnn_1_airplane_10_n02690373_3818.png
cornet-s,5,211,NaN,clock,clock,1,5331_lp_dnn_1_clock_10_n04548280_2062.png
cornet-s,5,212,NaN,clock,clock,1,5332_lp_dnn_1_clock_10_n02708093_3262.png
cornet-s,5,213,NaN,clock,clock,1,5333_lp_dnn_1_clock_10_n04548280_6046.png
cornet-s,5,214,NaN,clock,clock,1,5334_lp_dnn_1_clock_10_n03196217_6357.png
cornet-s,5,215,NaN,clock,clock,1,5335_lp_dnn_1_clock_10_n04548280_1645.png
cornet-s,5,216,NaN,clock,clock,1,5336_lp_dnn_1_clock_10_n02708093_5734.png
cornet-s,5,217,NaN,clock,clock,1,5337_lp_dnn_1_clock_10_n02708093_597.png
cornet-s,5,218,NaN,clock,clock,1,5338_lp_dnn_1_clock_10_n03196217_2563.png
cornet-s,5,219,NaN,clock,clock,1,5339_lp_dnn_1_clock_10_n04548280_5957.png
cornet-s,5,220,NaN,clock,clock,1,5340_lp_dnn_1_clock_10_n04548280_5476.png
cornet-s,5,221,NaN,oven,oven,1,5341_lp_dnn_1_oven_10_n04111531_3470.png
cornet-s,5,222,NaN,oven,oven,1,5342_lp_dnn_1_oven_10_n04111531_1054.png
cornet-s,5,223,NaN,oven,oven,1,5343_lp_dnn_1_oven_10_n04111531_11279.png
cornet-s,5,224,NaN,oven,oven,1,5344_lp_dnn_1_oven_10_n04111531_7106.png
cornet-s,5,225,NaN,oven,oven,1,5345_lp_dnn_1_oven_10_n04111531_2630.png
cornet-s,5,226,NaN,oven,oven,1,5346_lp_dnn_1_oven_10_n04111531_7340.png
cornet-s,5,227,NaN,oven,oven,1,5347_lp_dnn_1_oven_10_n04111531_1830.png
cornet-s,5,228,NaN,oven,oven,1,5348_lp_dnn_1_oven_10_n04111531_7449.png
cornet-s,5,229,NaN,oven,oven,1,5349_lp_dnn_1_oven_10_n04111531_7764.png
cornet-s,5,230,NaN,oven,oven,1,5350_lp_dnn_1_oven_10_n04111531_6400.png
cornet-s,5,231,NaN,chair,chair,1,5351_lp_dnn_1_chair_10_n02791124_3537.png
cornet-s,5,232,NaN,chair,chair,1,5352_lp_dnn_1_chair_10_n02791124_6648.png
cornet-s,5,233,NaN,chair,chair,1,5353_lp_dnn_1_chair_10_n04429376_27697.png
cornet-s,5,234,NaN,chair,chair,1,5354_lp_dnn_1_chair_10_n04099969_7471.png
cornet-s,5,235,NaN,chair,chair,1,5355_lp_dnn_1_chair_10_n04429376_3852.png
cornet-s,5,236,NaN,chair,chair,1,5356_lp_dnn_1_chair_10_n03376595_6999.png
cornet-s,5,237,NaN,chair,chair,1,5357_lp_dnn_1_chair_10_n02791124_17001.png
cornet-s,5,238,NaN,chair,chair,1,5358_lp_dnn_1_chair_10_n03376595_1862.png
cornet-s,5,239,NaN,chair,chair,1,5359_lp_dnn_1_chair_10_n03376595_3038.png
cornet-s,5,240,NaN,chair,chair,1,5360_lp_dnn_1_chair_10_n04099969_6772.png
cornet-s,5,241,NaN,bear,bear,1,5361_lp_dnn_1_bear_10_n02134418_24458.png
cornet-s,5,242,NaN,bear,bear,1,5362_lp_dnn_1_bear_10_n02133161_2135.png
cornet-s,5,243,NaN,bear,bear,1,5363_lp_dnn_1_bear_10_n02134418_4364.png
cornet-s,5,244,NaN,dog,bear,1,5364_lp_dnn_1_bear_10_n02134418_5535.png
cornet-s,5,245,NaN,bear,bear,1,5365_lp_dnn_1_bear_10_n02134084_20500.png
cornet-s,5,246,NaN,bear,bear,1,5366_lp_dnn_1_bear_10_n02134084_20577.png
cornet-s,5,247,NaN,bear,bear,1,5367_lp_dnn_1_bear_10_n02134418_2655.png
cornet-s,5,248,NaN,bear,bear,1,5368_lp_dnn_1_bear_10_n02132136_3839.png
cornet-s,5,249,NaN,bear,bear,1,5369_lp_dnn_1_bear_10_n02133161_13461.png
cornet-s,5,250,NaN,bear,bear,1,5370_lp_dnn_1_bear_10_n02134418_3952.png
cornet-s,5,251,NaN,boat,boat,1,5371_lp_dnn_1_boat_10_n04612504_17581.png
cornet-s,5,252,NaN,boat,boat,1,5372_lp_dnn_1_boat_10_n03344393_3237.png
cornet-s,5,253,NaN,boat,boat,1,5373_lp_dnn_1_boat_10_n04273569_33486.png
cornet-s,5,254,NaN,boat,boat,1,5374_lp_dnn_1_boat_10_n02951358_10047.png
cornet-s,5,255,NaN,boat,boat,1,5375_lp_dnn_1_boat_10_n03344393_5842.png
cornet-s,5,256,NaN,boat,boat,1,5376_lp_dnn_1_boat_10_n03344393_1392.png
cornet-s,5,257,NaN,boat,boat,1,5377_lp_dnn_1_boat_10_n04612504_13408.png
cornet-s,5,258,NaN,boat,boat,1,5378_lp_dnn_1_boat_10_n02951358_10626.png
cornet-s,5,259,NaN,boat,boat,1,5379_lp_dnn_1_boat_10_n02951358_2350.png
cornet-s,5,260,NaN,boat,boat,1,5380_lp_dnn_1_boat_10_n03344393_6101.png
cornet-s,5,261,NaN,cat,cat,1,5381_lp_dnn_1_cat_10_n02123597_713.png
cornet-s,5,262,NaN,dog,cat,1,5382_lp_dnn_1_cat_10_n02123597_12742.png
cornet-s,5,263,NaN,cat,cat,1,5383_lp_dnn_1_cat_10_n02124075_11068.png
cornet-s,5,264,NaN,cat,cat,1,5384_lp_dnn_1_cat_10_n02123394_3515.png
cornet-s,5,265,NaN,cat,cat,1,5385_lp_dnn_1_cat_10_n02123159_2586.png
cornet-s,5,266,NaN,cat,cat,1,5386_lp_dnn_1_cat_10_n02123159_3034.png
cornet-s,5,267,NaN,dog,cat,1,5387_lp_dnn_1_cat_10_n02123394_1469.png
cornet-s,5,268,NaN,cat,cat,1,5388_lp_dnn_1_cat_10_n02125311_35073.png
cornet-s,5,269,NaN,cat,cat,1,5389_lp_dnn_1_cat_10_n02123045_3588.png
cornet-s,5,270,NaN,cat,cat,1,5390_lp_dnn_1_cat_10_n02123394_5256.png
cornet-s,5,271,NaN,bottle,bottle,1,5391_lp_dnn_1_bottle_10_n03983396_10213.png
cornet-s,5,272,NaN,bottle,bottle,1,5392_lp_dnn_1_bottle_10_n03983396_11654.png
cornet-s,5,273,NaN,keyboard,bottle,1,5393_lp_dnn_1_bottle_10_n04591713_5392.png
cornet-s,5,274,NaN,bottle,bottle,1,5394_lp_dnn_1_bottle_10_n04591713_2787.png
cornet-s,5,275,NaN,bottle,bottle,1,5395_lp_dnn_1_bottle_10_n03983396_18099.png
cornet-s,5,276,NaN,bottle,bottle,1,5396_lp_dnn_1_bottle_10_n04560804_5322.png
cornet-s,5,277,NaN,bottle,bottle,1,5397_lp_dnn_1_bottle_10_n04560804_16025.png
cornet-s,5,278,NaN,bottle,bottle,1,5398_lp_dnn_1_bottle_10_n04557648_91.png
cornet-s,5,279,NaN,bottle,bottle,1,5399_lp_dnn_1_bottle_10_n03937543_6343.png
cornet-s,5,280,NaN,bottle,bottle,1,5400_lp_dnn_1_bottle_10_n02823428_14215.png
cornet-s,5,281,NaN,truck,truck,1,5401_lp_dnn_1_truck_10_n03417042_3390.png
cornet-s,5,282,NaN,truck,truck,1,5402_lp_dnn_1_truck_10_n03417042_2515.png
cornet-s,5,283,NaN,truck,truck,1,5403_lp_dnn_1_truck_10_n04467665_12867.png
cornet-s,5,284,NaN,truck,truck,1,5404_lp_dnn_1_truck_10_n03417042_1635.png
cornet-s,5,285,NaN,truck,truck,1,5405_lp_dnn_1_truck_10_n03417042_24785.png
cornet-s,5,286,NaN,truck,truck,1,5406_lp_dnn_1_truck_10_n04467665_38361.png
cornet-s,5,287,NaN,truck,truck,1,5407_lp_dnn_1_truck_10_n03796401_6503.png
cornet-s,5,288,NaN,truck,truck,1,5408_lp_dnn_1_truck_10_n03417042_12874.png
cornet-s,5,289,NaN,truck,truck,1,5409_lp_dnn_1_truck_10_n03417042_5234.png
cornet-s,5,290,NaN,truck,truck,1,5410_lp_dnn_1_truck_10_n04467665_70480.png
cornet-s,5,291,NaN,car,car,1,5411_lp_dnn_1_car_10_n04285008_5139.png
cornet-s,5,292,NaN,car,car,1,5412_lp_dnn_1_car_10_n04285008_4730.png
cornet-s,5,293,NaN,car,car,1,5413_lp_dnn_1_car_10_n04285008_8093.png
cornet-s,5,294,NaN,car,car,1,5414_lp_dnn_1_car_10_n04285008_4969.png
cornet-s,5,295,NaN,car,car,1,5415_lp_dnn_1_car_10_n04285008_11790.png
cornet-s,5,296,NaN,car,car,1,5416_lp_dnn_1_car_10_n04285008_16670.png
cornet-s,5,297,NaN,car,car,1,5417_lp_dnn_1_car_10_n04285008_11756.png
cornet-s,5,298,NaN,car,car,1,5418_lp_dnn_1_car_10_n03100240_416.png
cornet-s,5,299,NaN,car,car,1,5419_lp_dnn_1_car_10_n04285008_4109.png
cornet-s,5,300,NaN,truck,car,1,5420_lp_dnn_1_car_10_n04285008_12171.png
cornet-s,5,301,NaN,bird,bird,1,5421_lp_dnn_1_bird_10_n01828970_16646.png
cornet-s,5,302,NaN,bird,bird,1,5422_lp_dnn_1_bird_10_n01622779_3876.png
cornet-s,5,303,NaN,bird,bird,1,5423_lp_dnn_1_bird_10_n02011460_2704.png
cornet-s,5,304,NaN,bird,bird,1,5424_lp_dnn_1_bird_10_n02017213_821.png
cornet-s,5,305,NaN,bird,bird,1,5425_lp_dnn_1_bird_10_n02011460_1909.png
cornet-s,5,306,NaN,bird,bird,1,5426_lp_dnn_1_bird_10_n02009229_101.png
cornet-s,5,307,NaN,bird,bird,1,5427_lp_dnn_1_bird_10_n02017213_7670.png
cornet-s,5,308,NaN,bicycle,bird,1,5428_lp_dnn_1_bird_10_n01843383_7567.png
cornet-s,5,309,NaN,bird,bird,1,5429_lp_dnn_1_bird_10_n01530575_9657.png
cornet-s,5,310,NaN,bird,bird,1,5430_lp_dnn_1_bird_10_n01828970_2098.png
cornet-s,5,311,NaN,dog,dog,1,5431_lp_dnn_1_dog_10_n02092339_4948.png
cornet-s,5,312,NaN,dog,dog,1,5432_lp_dnn_1_dog_10_n02096051_411.png
cornet-s,5,313,NaN,dog,dog,1,5433_lp_dnn_1_dog_10_n02102973_7095.png
cornet-s,5,314,NaN,dog,dog,1,5434_lp_dnn_1_dog_10_n02104029_319.png
cornet-s,5,315,NaN,dog,dog,1,5435_lp_dnn_1_dog_10_n02106550_9654.png
cornet-s,5,316,NaN,dog,dog,1,5436_lp_dnn_1_dog_10_n02113712_14606.png
cornet-s,5,317,NaN,dog,dog,1,5437_lp_dnn_1_dog_10_n02086646_7392.png
cornet-s,5,318,NaN,dog,dog,1,5438_lp_dnn_1_dog_10_n02099601_544.png
cornet-s,5,319,NaN,dog,dog,1,5439_lp_dnn_1_dog_10_n02096294_3139.png
cornet-s,5,320,NaN,dog,dog,1,5440_lp_dnn_1_dog_10_n02107574_3202.png
cornet-s,5,321,NaN,knife,knife,3,5441_lp_dnn_3_knife_10_n03041632_26989.png
cornet-s,5,322,NaN,knife,knife,3,5442_lp_dnn_3_knife_10_n03041632_84048.png
cornet-s,5,323,NaN,knife,knife,3,5443_lp_dnn_3_knife_10_n03041632_1607.png
cornet-s,5,324,NaN,clock,knife,3,5444_lp_dnn_3_knife_10_n03041632_19614.png
cornet-s,5,325,NaN,keyboard,knife,3,5445_lp_dnn_3_knife_10_n03041632_29940.png
cornet-s,5,326,NaN,knife,knife,3,5446_lp_dnn_3_knife_10_n03041632_5801.png
cornet-s,5,327,NaN,knife,knife,3,5447_lp_dnn_3_knife_10_n03041632_15431.png
cornet-s,5,328,NaN,knife,knife,3,5448_lp_dnn_3_knife_10_n03041632_7173.png
cornet-s,5,329,NaN,knife,knife,3,5449_lp_dnn_3_knife_10_n03041632_4443.png
cornet-s,5,330,NaN,keyboard,knife,3,5450_lp_dnn_3_knife_10_n03041632_23087.png
cornet-s,5,331,NaN,keyboard,keyboard,3,5451_lp_dnn_3_keyboard_10_n03085013_24408.png
cornet-s,5,332,NaN,clock,keyboard,3,5452_lp_dnn_3_keyboard_10_n03085013_22494.png
cornet-s,5,333,NaN,keyboard,keyboard,3,5453_lp_dnn_3_keyboard_10_n04505470_10076.png
cornet-s,5,334,NaN,keyboard,keyboard,3,5454_lp_dnn_3_keyboard_10_n03085013_18902.png
cornet-s,5,335,NaN,keyboard,keyboard,3,5455_lp_dnn_3_keyboard_10_n04505470_5923.png
cornet-s,5,336,NaN,keyboard,keyboard,3,5456_lp_dnn_3_keyboard_10_n03085013_17260.png
cornet-s,5,337,NaN,keyboard,keyboard,3,5457_lp_dnn_3_keyboard_10_n03085013_919.png
cornet-s,5,338,NaN,keyboard,keyboard,3,5458_lp_dnn_3_keyboard_10_n04505470_209.png
cornet-s,5,339,NaN,oven,keyboard,3,5459_lp_dnn_3_keyboard_10_n04505470_1430.png
cornet-s,5,340,NaN,keyboard,keyboard,3,5460_lp_dnn_3_keyboard_10_n03085013_21609.png
cornet-s,5,341,NaN,airplane,elephant,3,5461_lp_dnn_3_elephant_10_n02504013_7926.png
cornet-s,5,342,NaN,elephant,elephant,3,5462_lp_dnn_3_elephant_10_n02504458_5436.png
cornet-s,5,343,NaN,elephant,elephant,3,5463_lp_dnn_3_elephant_10_n02504458_5824.png
cornet-s,5,344,NaN,airplane,elephant,3,5464_lp_dnn_3_elephant_10_n02504458_10112.png
cornet-s,5,345,NaN,boat,elephant,3,5465_lp_dnn_3_elephant_10_n02504458_696.png
cornet-s,5,346,NaN,elephant,elephant,3,5466_lp_dnn_3_elephant_10_n02504013_6606.png
cornet-s,5,347,NaN,elephant,elephant,3,5467_lp_dnn_3_elephant_10_n02504458_7213.png
cornet-s,5,348,NaN,knife,elephant,3,5468_lp_dnn_3_elephant_10_n02504013_8883.png
cornet-s,5,349,NaN,keyboard,elephant,3,5469_lp_dnn_3_elephant_10_n02504458_4454.png
cornet-s,5,350,NaN,elephant,elephant,3,5470_lp_dnn_3_elephant_10_n02504013_3295.png
cornet-s,5,351,NaN,bottle,bicycle,3,5471_lp_dnn_3_bicycle_10_n03792782_10734.png
cornet-s,5,352,NaN,chair,bicycle,3,5472_lp_dnn_3_bicycle_10_n02835271_10770.png
cornet-s,5,353,NaN,bicycle,bicycle,3,5473_lp_dnn_3_bicycle_10_n02835271_8596.png
cornet-s,5,354,NaN,bicycle,bicycle,3,5474_lp_dnn_3_bicycle_10_n02835271_12360.png
cornet-s,5,355,NaN,bicycle,bicycle,3,5475_lp_dnn_3_bicycle_10_n03792782_3591.png
cornet-s,5,356,NaN,bicycle,bicycle,3,5476_lp_dnn_3_bicycle_10_n02835271_1513.png
cornet-s,5,357,NaN,bird,bicycle,3,5477_lp_dnn_3_bicycle_10_n02835271_1055.png
cornet-s,5,358,NaN,bicycle,bicycle,3,5478_lp_dnn_3_bicycle_10_n03792782_13835.png
cornet-s,5,359,NaN,bicycle,bicycle,3,5479_lp_dnn_3_bicycle_10_n03792782_55034.png
cornet-s,5,360,NaN,bicycle,bicycle,3,5480_lp_dnn_3_bicycle_10_n03792782_35904.png
cornet-s,5,361,NaN,airplane,airplane,3,5481_lp_dnn_3_airplane_10_n02690373_8274.png
cornet-s,5,362,NaN,airplane,airplane,3,5482_lp_dnn_3_airplane_10_n02690373_2629.png
cornet-s,5,363,NaN,airplane,airplane,3,5483_lp_dnn_3_airplane_10_n02690373_1094.png
cornet-s,5,364,NaN,airplane,airplane,3,5484_lp_dnn_3_airplane_10_n02690373_10131.png
cornet-s,5,365,NaN,airplane,airplane,3,5485_lp_dnn_3_airplane_10_n02690373_5430.png
cornet-s,5,366,NaN,airplane,airplane,3,5486_lp_dnn_3_airplane_10_n02690373_21731.png
cornet-s,5,367,NaN,airplane,airplane,3,5487_lp_dnn_3_airplane_10_n02690373_9401.png
cornet-s,5,368,NaN,airplane,airplane,3,5488_lp_dnn_3_airplane_10_n02690373_5146.png
cornet-s,5,369,NaN,airplane,airplane,3,5489_lp_dnn_3_airplane_10_n02690373_3313.png
cornet-s,5,370,NaN,airplane,airplane,3,5490_lp_dnn_3_airplane_10_n02690373_5247.png
cornet-s,5,371,NaN,clock,clock,3,5491_lp_dnn_3_clock_10_n02708093_2857.png
cornet-s,5,372,NaN,keyboard,clock,3,5492_lp_dnn_3_clock_10_n03196217_3647.png
cornet-s,5,373,NaN,clock,clock,3,5493_lp_dnn_3_clock_10_n04548280_3999.png
cornet-s,5,374,NaN,clock,clock,3,5494_lp_dnn_3_clock_10_n02708093_2006.png
cornet-s,5,375,NaN,clock,clock,3,5495_lp_dnn_3_clock_10_n04548280_2472.png
cornet-s,5,376,NaN,clock,clock,3,5496_lp_dnn_3_clock_10_n03196217_2695.png
cornet-s,5,377,NaN,keyboard,clock,3,5497_lp_dnn_3_clock_10_n03196217_5935.png
cornet-s,5,378,NaN,knife,clock,3,5498_lp_dnn_3_clock_10_n04548280_5354.png
cornet-s,5,379,NaN,clock,clock,3,5499_lp_dnn_3_clock_10_n02708093_2005.png
cornet-s,5,380,NaN,clock,clock,3,5500_lp_dnn_3_clock_10_n04548280_3153.png
cornet-s,5,381,NaN,oven,oven,3,5501_lp_dnn_3_oven_10_n04111531_1128.png
cornet-s,5,382,NaN,oven,oven,3,5502_lp_dnn_3_oven_10_n04111531_21232.png
cornet-s,5,383,NaN,oven,oven,3,5503_lp_dnn_3_oven_10_n04111531_8082.png
cornet-s,5,384,NaN,oven,oven,3,5504_lp_dnn_3_oven_10_n04111531_9411.png
cornet-s,5,385,NaN,truck,oven,3,5505_lp_dnn_3_oven_10_n04111531_21176.png
cornet-s,5,386,NaN,oven,oven,3,5506_lp_dnn_3_oven_10_n04111531_4795.png
cornet-s,5,387,NaN,oven,oven,3,5507_lp_dnn_3_oven_10_n04111531_19576.png
cornet-s,5,388,NaN,oven,oven,3,5508_lp_dnn_3_oven_10_n04111531_3098.png
cornet-s,5,389,NaN,oven,oven,3,5509_lp_dnn_3_oven_10_n04111531_6934.png
cornet-s,5,390,NaN,oven,oven,3,5510_lp_dnn_3_oven_10_n04111531_9939.png
cornet-s,5,391,NaN,oven,chair,3,5511_lp_dnn_3_chair_10_n04429376_23944.png
cornet-s,5,392,NaN,keyboard,chair,3,5512_lp_dnn_3_chair_10_n04099969_20604.png
cornet-s,5,393,NaN,chair,chair,3,5513_lp_dnn_3_chair_10_n04099969_25.png
cornet-s,5,394,NaN,keyboard,chair,3,5514_lp_dnn_3_chair_10_n03376595_3279.png
cornet-s,5,395,NaN,truck,chair,3,5515_lp_dnn_3_chair_10_n04099969_13530.png
cornet-s,5,396,NaN,chair,chair,3,5516_lp_dnn_3_chair_10_n03376595_3618.png
cornet-s,5,397,NaN,keyboard,chair,3,5517_lp_dnn_3_chair_10_n02791124_5415.png
cornet-s,5,398,NaN,airplane,chair,3,5518_lp_dnn_3_chair_10_n03376595_7041.png
cornet-s,5,399,NaN,keyboard,chair,3,5519_lp_dnn_3_chair_10_n04099969_39507.png
cornet-s,5,400,NaN,chair,chair,3,5520_lp_dnn_3_chair_10_n04429376_5238.png
cornet-s,5,401,NaN,bear,bear,3,5521_lp_dnn_3_bear_10_n02134418_6228.png
cornet-s,5,402,NaN,elephant,bear,3,5522_lp_dnn_3_bear_10_n02132136_18829.png
cornet-s,5,403,NaN,dog,bear,3,5523_lp_dnn_3_bear_10_n02132136_24408.png
cornet-s,5,404,NaN,elephant,bear,3,5524_lp_dnn_3_bear_10_n02134084_6758.png
cornet-s,5,405,NaN,bear,bear,3,5525_lp_dnn_3_bear_10_n02134084_1654.png
cornet-s,5,406,NaN,knife,bear,3,5526_lp_dnn_3_bear_10_n02134084_14400.png
cornet-s,5,407,NaN,bear,bear,3,5527_lp_dnn_3_bear_10_n02134418_3383.png
cornet-s,5,408,NaN,elephant,bear,3,5528_lp_dnn_3_bear_10_n02134084_473.png
cornet-s,5,409,NaN,airplane,bear,3,5529_lp_dnn_3_bear_10_n02133161_6448.png
cornet-s,5,410,NaN,bear,bear,3,5530_lp_dnn_3_bear_10_n02134084_7077.png
cornet-s,5,411,NaN,airplane,boat,3,5531_lp_dnn_3_boat_10_n02951358_8702.png
cornet-s,5,412,NaN,oven,boat,3,5532_lp_dnn_3_boat_10_n02951358_3159.png
cornet-s,5,413,NaN,bicycle,boat,3,5533_lp_dnn_3_boat_10_n02951358_11369.png
cornet-s,5,414,NaN,truck,boat,3,5534_lp_dnn_3_boat_10_n03344393_8380.png
cornet-s,5,415,NaN,boat,boat,3,5535_lp_dnn_3_boat_10_n03344393_5801.png
cornet-s,5,416,NaN,boat,boat,3,5536_lp_dnn_3_boat_10_n03344393_1147.png
cornet-s,5,417,NaN,airplane,boat,3,5537_lp_dnn_3_boat_10_n03662601_20110.png
cornet-s,5,418,NaN,keyboard,boat,3,5538_lp_dnn_3_boat_10_n04612504_7077.png
cornet-s,5,419,NaN,bicycle,boat,3,5539_lp_dnn_3_boat_10_n03662601_7824.png
cornet-s,5,420,NaN,airplane,boat,3,5540_lp_dnn_3_boat_10_n04273569_23364.png
cornet-s,5,421,NaN,cat,cat,3,5541_lp_dnn_3_cat_10_n02123045_10511.png
cornet-s,5,422,NaN,dog,cat,3,5542_lp_dnn_3_cat_10_n02125311_43726.png
cornet-s,5,423,NaN,knife,cat,3,5543_lp_dnn_3_cat_10_n02123159_220.png
cornet-s,5,424,NaN,dog,cat,3,5544_lp_dnn_3_cat_10_n02123159_6558.png
cornet-s,5,425,NaN,knife,cat,3,5545_lp_dnn_3_cat_10_n02123597_1639.png
cornet-s,5,426,NaN,cat,cat,3,5546_lp_dnn_3_cat_10_n02123159_4051.png
cornet-s,5,427,NaN,cat,cat,3,5547_lp_dnn_3_cat_10_n02123159_6927.png
cornet-s,5,428,NaN,bear,cat,3,5548_lp_dnn_3_cat_10_n02125311_44642.png
cornet-s,5,429,NaN,knife,cat,3,5549_lp_dnn_3_cat_10_n02124075_11089.png
cornet-s,5,430,NaN,dog,cat,3,5550_lp_dnn_3_cat_10_n02123597_4459.png
cornet-s,5,431,NaN,bottle,bottle,3,5551_lp_dnn_3_bottle_10_n04557648_11922.png
cornet-s,5,432,NaN,oven,bottle,3,5552_lp_dnn_3_bottle_10_n04557648_5184.png
cornet-s,5,433,NaN,knife,bottle,3,5553_lp_dnn_3_bottle_10_n04560804_225.png
cornet-s,5,434,NaN,keyboard,bottle,3,5554_lp_dnn_3_bottle_10_n02823428_3204.png
cornet-s,5,435,NaN,keyboard,bottle,3,5555_lp_dnn_3_bottle_10_n02823428_2468.png
cornet-s,5,436,NaN,bottle,bottle,3,5556_lp_dnn_3_bottle_10_n04560804_28584.png
cornet-s,5,437,NaN,bottle,bottle,3,5557_lp_dnn_3_bottle_10_n03937543_5841.png
cornet-s,5,438,NaN,bottle,bottle,3,5558_lp_dnn_3_bottle_10_n04579145_6414.png
cornet-s,5,439,NaN,bottle,bottle,3,5559_lp_dnn_3_bottle_10_n02823428_4800.png
cornet-s,5,440,NaN,bottle,bottle,3,5560_lp_dnn_3_bottle_10_n03937543_4399.png
cornet-s,5,441,NaN,truck,truck,3,5561_lp_dnn_3_truck_10_n03796401_20093.png
cornet-s,5,442,NaN,truck,truck,3,5562_lp_dnn_3_truck_10_n03417042_29303.png
cornet-s,5,443,NaN,truck,truck,3,5563_lp_dnn_3_truck_10_n03796401_1806.png
cornet-s,5,444,NaN,truck,truck,3,5564_lp_dnn_3_truck_10_n04467665_2422.png
cornet-s,5,445,NaN,truck,truck,3,5565_lp_dnn_3_truck_10_n03417042_6549.png
cornet-s,5,446,NaN,chair,truck,3,5566_lp_dnn_3_truck_10_n03417042_12936.png
cornet-s,5,447,NaN,airplane,truck,3,5567_lp_dnn_3_truck_10_n03417042_5604.png
cornet-s,5,448,NaN,truck,truck,3,5568_lp_dnn_3_truck_10_n03417042_28743.png
cornet-s,5,449,NaN,keyboard,truck,3,5569_lp_dnn_3_truck_10_n03417042_7403.png
cornet-s,5,450,NaN,truck,truck,3,5570_lp_dnn_3_truck_10_n03796401_17457.png
cornet-s,5,451,NaN,car,car,3,5571_lp_dnn_3_car_10_n04285008_5881.png
cornet-s,5,452,NaN,car,car,3,5572_lp_dnn_3_car_10_n03100240_1750.png
cornet-s,5,453,NaN,car,car,3,5573_lp_dnn_3_car_10_n02814533_28938.png
cornet-s,5,454,NaN,car,car,3,5574_lp_dnn_3_car_10_n04285008_9811.png
cornet-s,5,455,NaN,truck,car,3,5575_lp_dnn_3_car_10_n02814533_45060.png
cornet-s,5,456,NaN,truck,car,3,5576_lp_dnn_3_car_10_n02814533_85296.png
cornet-s,5,457,NaN,truck,car,3,5577_lp_dnn_3_car_10_n03100240_12769.png
cornet-s,5,458,NaN,car,car,3,5578_lp_dnn_3_car_10_n02814533_76968.png
cornet-s,5,459,NaN,truck,car,3,5579_lp_dnn_3_car_10_n03100240_9425.png
cornet-s,5,460,NaN,car,car,3,5580_lp_dnn_3_car_10_n03100240_9101.png
cornet-s,5,461,NaN,airplane,bird,3,5581_lp_dnn_3_bird_10_n01796340_6900.png
cornet-s,5,462,NaN,knife,bird,3,5582_lp_dnn_3_bird_10_n02018207_1923.png
cornet-s,5,463,NaN,airplane,bird,3,5583_lp_dnn_3_bird_10_n01819313_947.png
cornet-s,5,464,NaN,airplane,bird,3,5584_lp_dnn_3_bird_10_n02051845_6111.png
cornet-s,5,465,NaN,keyboard,bird,3,5585_lp_dnn_3_bird_10_n01530575_5400.png
cornet-s,5,466,NaN,bird,bird,3,5586_lp_dnn_3_bird_10_n01537544_2655.png
cornet-s,5,467,NaN,bicycle,bird,3,5587_lp_dnn_3_bird_10_n02018207_10870.png
cornet-s,5,468,NaN,oven,bird,3,5588_lp_dnn_3_bird_10_n01558993_11309.png
cornet-s,5,469,NaN,dog,bird,3,5589_lp_dnn_3_bird_10_n01819313_4277.png
cornet-s,5,470,NaN,bird,bird,3,5590_lp_dnn_3_bird_10_n01530575_1139.png
cornet-s,5,471,NaN,knife,dog,3,5591_lp_dnn_3_dog_10_n02099849_7576.png
cornet-s,5,472,NaN,dog,dog,3,5592_lp_dnn_3_dog_10_n02093991_6192.png
cornet-s,5,473,NaN,dog,dog,3,5593_lp_dnn_3_dog_10_n02109047_58489.png
cornet-s,5,474,NaN,dog,dog,3,5594_lp_dnn_3_dog_10_n02105505_2440.png
cornet-s,5,475,NaN,dog,dog,3,5595_lp_dnn_3_dog_10_n02095314_4477.png
cornet-s,5,476,NaN,dog,dog,3,5596_lp_dnn_3_dog_10_n02090622_9374.png
cornet-s,5,477,NaN,keyboard,dog,3,5597_lp_dnn_3_dog_10_n02100236_4305.png
cornet-s,5,478,NaN,dog,dog,3,5598_lp_dnn_3_dog_10_n02109961_2532.png
cornet-s,5,479,NaN,airplane,dog,3,5599_lp_dnn_3_dog_10_n02100735_104.png
cornet-s,5,480,NaN,dog,dog,3,5600_lp_dnn_3_dog_10_n02091635_3336.png
cornet-s,5,481,NaN,bottle,knife,5,5601_lp_dnn_5_knife_10_n03041632_42526.png
cornet-s,5,482,NaN,knife,knife,5,5602_lp_dnn_5_knife_10_n03041632_9671.png
cornet-s,5,483,NaN,knife,knife,5,5603_lp_dnn_5_knife_10_n03041632_100645.png
cornet-s,5,484,NaN,knife,knife,5,5604_lp_dnn_5_knife_10_n03041632_13424.png
cornet-s,5,485,NaN,bottle,knife,5,5605_lp_dnn_5_knife_10_n03041632_83826.png
cornet-s,5,486,NaN,knife,knife,5,5606_lp_dnn_5_knife_10_n03041632_29827.png
cornet-s,5,487,NaN,keyboard,knife,5,5607_lp_dnn_5_knife_10_n03041632_55953.png
cornet-s,5,488,NaN,keyboard,knife,5,5608_lp_dnn_5_knife_10_n03041632_7680.png
cornet-s,5,489,NaN,knife,knife,5,5609_lp_dnn_5_knife_10_n03041632_30958.png
cornet-s,5,490,NaN,oven,knife,5,5610_lp_dnn_5_knife_10_n03041632_2546.png
cornet-s,5,491,NaN,oven,keyboard,5,5611_lp_dnn_5_keyboard_10_n03085013_23552.png
cornet-s,5,492,NaN,keyboard,keyboard,5,5612_lp_dnn_5_keyboard_10_n03085013_18966.png
cornet-s,5,493,NaN,bottle,keyboard,5,5613_lp_dnn_5_keyboard_10_n03085013_18964.png
cornet-s,5,494,NaN,keyboard,keyboard,5,5614_lp_dnn_5_keyboard_10_n03085013_19536.png
cornet-s,5,495,NaN,keyboard,keyboard,5,5615_lp_dnn_5_keyboard_10_n04505470_5056.png
cornet-s,5,496,NaN,truck,keyboard,5,5616_lp_dnn_5_keyboard_10_n03085013_23683.png
cornet-s,5,497,NaN,keyboard,keyboard,5,5617_lp_dnn_5_keyboard_10_n04505470_8512.png
cornet-s,5,498,NaN,keyboard,keyboard,5,5618_lp_dnn_5_keyboard_10_n04505470_8469.png
cornet-s,5,499,NaN,knife,keyboard,5,5619_lp_dnn_5_keyboard_10_n03085013_19316.png
cornet-s,5,500,NaN,keyboard,keyboard,5,5620_lp_dnn_5_keyboard_10_n04505470_6876.png
cornet-s,5,501,NaN,clock,elephant,5,5621_lp_dnn_5_elephant_10_n02504458_259.png
cornet-s,5,502,NaN,bear,elephant,5,5622_lp_dnn_5_elephant_10_n02504458_12555.png
cornet-s,5,503,NaN,dog,elephant,5,5623_lp_dnn_5_elephant_10_n02504458_8190.png
cornet-s,5,504,NaN,dog,elephant,5,5624_lp_dnn_5_elephant_10_n02504013_13422.png
cornet-s,5,505,NaN,oven,elephant,5,5625_lp_dnn_5_elephant_10_n02504458_7804.png
cornet-s,5,506,NaN,elephant,elephant,5,5626_lp_dnn_5_elephant_10_n02504458_5451.png
cornet-s,5,507,NaN,elephant,elephant,5,5627_lp_dnn_5_elephant_10_n02504458_6563.png
cornet-s,5,508,NaN,elephant,elephant,5,5628_lp_dnn_5_elephant_10_n02504458_1567.png
cornet-s,5,509,NaN,elephant,elephant,5,5629_lp_dnn_5_elephant_10_n02504458_4497.png
cornet-s,5,510,NaN,keyboard,elephant,5,5630_lp_dnn_5_elephant_10_n02504013_7753.png
cornet-s,5,511,NaN,airplane,bicycle,5,5631_lp_dnn_5_bicycle_10_n03792782_10727.png
cornet-s,5,512,NaN,knife,bicycle,5,5632_lp_dnn_5_bicycle_10_n03792782_34271.png
cornet-s,5,513,NaN,dog,bicycle,5,5633_lp_dnn_5_bicycle_10_n03792782_7568.png
cornet-s,5,514,NaN,knife,bicycle,5,5634_lp_dnn_5_bicycle_10_n02835271_17914.png
cornet-s,5,515,NaN,oven,bicycle,5,5635_lp_dnn_5_bicycle_10_n02835271_7771.png
cornet-s,5,516,NaN,bottle,bicycle,5,5636_lp_dnn_5_bicycle_10_n02835271_13649.png
cornet-s,5,517,NaN,bottle,bicycle,5,5637_lp_dnn_5_bicycle_10_n02835271_5825.png
cornet-s,5,518,NaN,keyboard,bicycle,5,5638_lp_dnn_5_bicycle_10_n02835271_17357.png
cornet-s,5,519,NaN,knife,bicycle,5,5639_lp_dnn_5_bicycle_10_n03792782_1712.png
cornet-s,5,520,NaN,knife,bicycle,5,5640_lp_dnn_5_bicycle_10_n02835271_1393.png
cornet-s,5,521,NaN,airplane,airplane,5,5641_lp_dnn_5_airplane_10_n02690373_4434.png
cornet-s,5,522,NaN,airplane,airplane,5,5642_lp_dnn_5_airplane_10_n02690373_5221.png
cornet-s,5,523,NaN,airplane,airplane,5,5643_lp_dnn_5_airplane_10_n02690373_4964.png
cornet-s,5,524,NaN,truck,airplane,5,5644_lp_dnn_5_airplane_10_n02690373_1972.png
cornet-s,5,525,NaN,clock,airplane,5,5645_lp_dnn_5_airplane_10_n02690373_1912.png
cornet-s,5,526,NaN,keyboard,airplane,5,5646_lp_dnn_5_airplane_10_n02690373_7698.png
cornet-s,5,527,NaN,oven,airplane,5,5647_lp_dnn_5_airplane_10_n02690373_5015.png
cornet-s,5,528,NaN,airplane,airplane,5,5648_lp_dnn_5_airplane_10_n02690373_6887.png
cornet-s,5,529,NaN,knife,airplane,5,5649_lp_dnn_5_airplane_10_n02690373_8653.png
cornet-s,5,530,NaN,knife,airplane,5,5650_lp_dnn_5_airplane_10_n02690373_303.png
cornet-s,5,531,NaN,clock,clock,5,5651_lp_dnn_5_clock_10_n03196217_2507.png
cornet-s,5,532,NaN,truck,clock,5,5652_lp_dnn_5_clock_10_n03196217_1611.png
cornet-s,5,533,NaN,clock,clock,5,5653_lp_dnn_5_clock_10_n04548280_8156.png
cornet-s,5,534,NaN,clock,clock,5,5654_lp_dnn_5_clock_10_n03196217_3600.png
cornet-s,5,535,NaN,truck,clock,5,5655_lp_dnn_5_clock_10_n02708093_1975.png
cornet-s,5,536,NaN,knife,clock,5,5656_lp_dnn_5_clock_10_n04548280_2299.png
cornet-s,5,537,NaN,clock,clock,5,5657_lp_dnn_5_clock_10_n02708093_175.png
cornet-s,5,538,NaN,clock,clock,5,5658_lp_dnn_5_clock_10_n02708093_3604.png
cornet-s,5,539,NaN,clock,clock,5,5659_lp_dnn_5_clock_10_n03196217_3943.png
cornet-s,5,540,NaN,clock,clock,5,5660_lp_dnn_5_clock_10_n03196217_3136.png
cornet-s,5,541,NaN,knife,oven,5,5661_lp_dnn_5_oven_10_n04111531_22388.png
cornet-s,5,542,NaN,oven,oven,5,5662_lp_dnn_5_oven_10_n04111531_1398.png
cornet-s,5,543,NaN,knife,oven,5,5663_lp_dnn_5_oven_10_n04111531_12952.png
cornet-s,5,544,NaN,clock,oven,5,5664_lp_dnn_5_oven_10_n04111531_18223.png
cornet-s,5,545,NaN,oven,oven,5,5665_lp_dnn_5_oven_10_n04111531_14441.png
cornet-s,5,546,NaN,knife,oven,5,5666_lp_dnn_5_oven_10_n04111531_25647.png
cornet-s,5,547,NaN,oven,oven,5,5667_lp_dnn_5_oven_10_n04111531_12885.png
cornet-s,5,548,NaN,oven,oven,5,5668_lp_dnn_5_oven_10_n04111531_13520.png
cornet-s,5,549,NaN,oven,oven,5,5669_lp_dnn_5_oven_10_n04111531_538.png
cornet-s,5,550,NaN,knife,oven,5,5670_lp_dnn_5_oven_10_n04111531_2943.png
cornet-s,5,551,NaN,bottle,chair,5,5671_lp_dnn_5_chair_10_n04099969_10953.png
cornet-s,5,552,NaN,knife,chair,5,5672_lp_dnn_5_chair_10_n03376595_3195.png
cornet-s,5,553,NaN,knife,chair,5,5673_lp_dnn_5_chair_10_n04099969_1219.png
cornet-s,5,554,NaN,keyboard,chair,5,5674_lp_dnn_5_chair_10_n04099969_142.png
cornet-s,5,555,NaN,chair,chair,5,5675_lp_dnn_5_chair_10_n04099969_15880.png
cornet-s,5,556,NaN,oven,chair,5,5676_lp_dnn_5_chair_10_n04099969_4826.png
cornet-s,5,557,NaN,knife,chair,5,5677_lp_dnn_5_chair_10_n04429376_616.png
cornet-s,5,558,NaN,bottle,chair,5,5678_lp_dnn_5_chair_10_n04099969_8531.png
cornet-s,5,559,NaN,chair,chair,5,5679_lp_dnn_5_chair_10_n03376595_4332.png
cornet-s,5,560,NaN,oven,chair,5,5680_lp_dnn_5_chair_10_n04099969_5757.png
cornet-s,5,561,NaN,knife,bear,5,5681_lp_dnn_5_bear_10_n02133161_10337.png
cornet-s,5,562,NaN,bear,bear,5,5682_lp_dnn_5_bear_10_n02133161_2189.png
cornet-s,5,563,NaN,bear,bear,5,5683_lp_dnn_5_bear_10_n02132136_10837.png
cornet-s,5,564,NaN,bear,bear,5,5684_lp_dnn_5_bear_10_n02133161_11329.png
cornet-s,5,565,NaN,dog,bear,5,5685_lp_dnn_5_bear_10_n02134084_12355.png
cornet-s,5,566,NaN,dog,bear,5,5686_lp_dnn_5_bear_10_n02134084_19808.png
cornet-s,5,567,NaN,knife,bear,5,5687_lp_dnn_5_bear_10_n02134084_10112.png
cornet-s,5,568,NaN,dog,bear,5,5688_lp_dnn_5_bear_10_n02133161_1571.png
cornet-s,5,569,NaN,bear,bear,5,5689_lp_dnn_5_bear_10_n02134418_2324.png
cornet-s,5,570,NaN,truck,bear,5,5690_lp_dnn_5_bear_10_n02134084_27588.png
cornet-s,5,571,NaN,knife,boat,5,5691_lp_dnn_5_boat_10_n03344393_5417.png
cornet-s,5,572,NaN,boat,boat,5,5692_lp_dnn_5_boat_10_n04612504_9488.png
cornet-s,5,573,NaN,truck,boat,5,5693_lp_dnn_5_boat_10_n02951358_12312.png
cornet-s,5,574,NaN,clock,boat,5,5694_lp_dnn_5_boat_10_n03662601_5527.png
cornet-s,5,575,NaN,keyboard,boat,5,5695_lp_dnn_5_boat_10_n02951358_30099.png
cornet-s,5,576,NaN,airplane,boat,5,5696_lp_dnn_5_boat_10_n03662601_5171.png
cornet-s,5,577,NaN,dog,boat,5,5697_lp_dnn_5_boat_10_n02951358_8840.png
cornet-s,5,578,NaN,keyboard,boat,5,5698_lp_dnn_5_boat_10_n02951358_2654.png
cornet-s,5,579,NaN,airplane,boat,5,5699_lp_dnn_5_boat_10_n04273569_4901.png
cornet-s,5,580,NaN,knife,boat,5,5700_lp_dnn_5_boat_10_n03662601_3476.png
cornet-s,5,581,NaN,cat,cat,5,5701_lp_dnn_5_cat_10_n02123394_1914.png
cornet-s,5,582,NaN,knife,cat,5,5702_lp_dnn_5_cat_10_n02125311_45953.png
cornet-s,5,583,NaN,cat,cat,5,5703_lp_dnn_5_cat_10_n02123394_510.png
cornet-s,5,584,NaN,knife,cat,5,5704_lp_dnn_5_cat_10_n02125311_39958.png
cornet-s,5,585,NaN,knife,cat,5,5705_lp_dnn_5_cat_10_n02125311_36622.png
cornet-s,5,586,NaN,knife,cat,5,5706_lp_dnn_5_cat_10_n02123597_6409.png
cornet-s,5,587,NaN,knife,cat,5,5707_lp_dnn_5_cat_10_n02123597_5282.png
cornet-s,5,588,NaN,knife,cat,5,5708_lp_dnn_5_cat_10_n02123159_3804.png
cornet-s,5,589,NaN,bottle,cat,5,5709_lp_dnn_5_cat_10_n02124075_14837.png
cornet-s,5,590,NaN,dog,cat,5,5710_lp_dnn_5_cat_10_n02125311_4312.png
cornet-s,5,591,NaN,bottle,bottle,5,5711_lp_dnn_5_bottle_10_n04560804_1417.png
cornet-s,5,592,NaN,keyboard,bottle,5,5712_lp_dnn_5_bottle_10_n04560804_6611.png
cornet-s,5,593,NaN,bottle,bottle,5,5713_lp_dnn_5_bottle_10_n04591713_3603.png
cornet-s,5,594,NaN,bottle,bottle,5,5714_lp_dnn_5_bottle_10_n04560804_2155.png
cornet-s,5,595,NaN,clock,bottle,5,5715_lp_dnn_5_bottle_10_n02823428_11498.png
cornet-s,5,596,NaN,bottle,bottle,5,5716_lp_dnn_5_bottle_10_n04579145_4597.png
cornet-s,5,597,NaN,bottle,bottle,5,5717_lp_dnn_5_bottle_10_n03983396_3572.png
cornet-s,5,598,NaN,knife,bottle,5,5718_lp_dnn_5_bottle_10_n03937543_339.png
cornet-s,5,599,NaN,bottle,bottle,5,5719_lp_dnn_5_bottle_10_n03983396_18540.png
cornet-s,5,600,NaN,bottle,bottle,5,5720_lp_dnn_5_bottle_10_n03983396_12108.png
cornet-s,5,601,NaN,clock,truck,5,5721_lp_dnn_5_truck_10_n03796401_10070.png
cornet-s,5,602,NaN,knife,truck,5,5722_lp_dnn_5_truck_10_n03417042_11435.png
cornet-s,5,603,NaN,truck,truck,5,5723_lp_dnn_5_truck_10_n03796401_1326.png
cornet-s,5,604,NaN,keyboard,truck,5,5724_lp_dnn_5_truck_10_n04467665_31621.png
cornet-s,5,605,NaN,truck,truck,5,5725_lp_dnn_5_truck_10_n04467665_3193.png
cornet-s,5,606,NaN,truck,truck,5,5726_lp_dnn_5_truck_10_n03417042_18124.png
cornet-s,5,607,NaN,truck,truck,5,5727_lp_dnn_5_truck_10_n04467665_57786.png
cornet-s,5,608,NaN,truck,truck,5,5728_lp_dnn_5_truck_10_n04467665_27899.png
cornet-s,5,609,NaN,knife,truck,5,5729_lp_dnn_5_truck_10_n03417042_5648.png
cornet-s,5,610,NaN,truck,truck,5,5730_lp_dnn_5_truck_10_n03417042_12988.png
cornet-s,5,611,NaN,oven,car,5,5731_lp_dnn_5_car_10_n04285008_6439.png
cornet-s,5,612,NaN,truck,car,5,5732_lp_dnn_5_car_10_n02814533_3831.png
cornet-s,5,613,NaN,oven,car,5,5733_lp_dnn_5_car_10_n02814533_65256.png
cornet-s,5,614,NaN,airplane,car,5,5734_lp_dnn_5_car_10_n02814533_24730.png
cornet-s,5,615,NaN,truck,car,5,5735_lp_dnn_5_car_10_n02814533_19025.png
cornet-s,5,616,NaN,keyboard,car,5,5736_lp_dnn_5_car_10_n02814533_18068.png
cornet-s,5,617,NaN,truck,car,5,5737_lp_dnn_5_car_10_n02814533_33205.png
cornet-s,5,618,NaN,truck,car,5,5738_lp_dnn_5_car_10_n03100240_12925.png
cornet-s,5,619,NaN,truck,car,5,5739_lp_dnn_5_car_10_n02814533_53757.png
cornet-s,5,620,NaN,truck,car,5,5740_lp_dnn_5_car_10_n03100240_9387.png
cornet-s,5,621,NaN,dog,bird,5,5741_lp_dnn_5_bird_10_n01833805_6475.png
cornet-s,5,622,NaN,bottle,bird,5,5742_lp_dnn_5_bird_10_n01532829_11111.png
cornet-s,5,623,NaN,elephant,bird,5,5743_lp_dnn_5_bird_10_n01601694_73.png
cornet-s,5,624,NaN,dog,bird,5,5744_lp_dnn_5_bird_10_n01795545_4094.png
cornet-s,5,625,NaN,knife,bird,5,5745_lp_dnn_5_bird_10_n02013706_12016.png
cornet-s,5,626,NaN,knife,bird,5,5746_lp_dnn_5_bird_10_n02009229_2418.png
cornet-s,5,627,NaN,knife,bird,5,5747_lp_dnn_5_bird_10_n01592084_1573.png
cornet-s,5,628,NaN,knife,bird,5,5748_lp_dnn_5_bird_10_n01592084_1344.png
cornet-s,5,629,NaN,knife,bird,5,5749_lp_dnn_5_bird_10_n02009912_18128.png
cornet-s,5,630,NaN,dog,bird,5,5750_lp_dnn_5_bird_10_n02013706_669.png
cornet-s,5,631,NaN,knife,dog,5,5751_lp_dnn_5_dog_10_n02093991_8214.png
cornet-s,5,632,NaN,truck,dog,5,5752_lp_dnn_5_dog_10_n02107312_7694.png
cornet-s,5,633,NaN,dog,dog,5,5753_lp_dnn_5_dog_10_n02097047_1329.png
cornet-s,5,634,NaN,knife,dog,5,5754_lp_dnn_5_dog_10_n02099267_19547.png
cornet-s,5,635,NaN,dog,dog,5,5755_lp_dnn_5_dog_10_n02106030_16680.png
cornet-s,5,636,NaN,keyboard,dog,5,5756_lp_dnn_5_dog_10_n02110063_14020.png
cornet-s,5,637,NaN,knife,dog,5,5757_lp_dnn_5_dog_10_n02110806_5565.png
cornet-s,5,638,NaN,bear,dog,5,5758_lp_dnn_5_dog_10_n02099267_3229.png
cornet-s,5,639,NaN,dog,dog,5,5759_lp_dnn_5_dog_10_n02113799_87.png
cornet-s,5,640,NaN,dog,dog,5,5760_lp_dnn_5_dog_10_n02106030_6459.png
cornet-s,5,641,NaN,knife,knife,7,5761_lp_dnn_7_knife_10_n03041632_37274.png
cornet-s,5,642,NaN,knife,knife,7,5762_lp_dnn_7_knife_10_n03041632_96714.png
cornet-s,5,643,NaN,knife,knife,7,5763_lp_dnn_7_knife_10_n03041632_25257.png
cornet-s,5,644,NaN,cat,knife,7,5764_lp_dnn_7_knife_10_n03041632_85416.png
cornet-s,5,645,NaN,knife,knife,7,5765_lp_dnn_7_knife_10_n03041632_40530.png
cornet-s,5,646,NaN,clock,knife,7,5766_lp_dnn_7_knife_10_n03041632_26340.png
cornet-s,5,647,NaN,knife,knife,7,5767_lp_dnn_7_knife_10_n03041632_1201.png
cornet-s,5,648,NaN,bottle,knife,7,5768_lp_dnn_7_knife_10_n03041632_737.png
cornet-s,5,649,NaN,clock,knife,7,5769_lp_dnn_7_knife_10_n03041632_50423.png
cornet-s,5,650,NaN,knife,knife,7,5770_lp_dnn_7_knife_10_n03041632_7119.png
cornet-s,5,651,NaN,knife,keyboard,7,5771_lp_dnn_7_keyboard_10_n04505470_486.png
cornet-s,5,652,NaN,knife,keyboard,7,5772_lp_dnn_7_keyboard_10_n04505470_8386.png
cornet-s,5,653,NaN,keyboard,keyboard,7,5773_lp_dnn_7_keyboard_10_n04505470_10191.png
cornet-s,5,654,NaN,clock,keyboard,7,5774_lp_dnn_7_keyboard_10_n03085013_688.png
cornet-s,5,655,NaN,oven,keyboard,7,5775_lp_dnn_7_keyboard_10_n03085013_30943.png
cornet-s,5,656,NaN,clock,keyboard,7,5776_lp_dnn_7_keyboard_10_n03085013_2725.png
cornet-s,5,657,NaN,oven,keyboard,7,5777_lp_dnn_7_keyboard_10_n04505470_5070.png
cornet-s,5,658,NaN,clock,keyboard,7,5778_lp_dnn_7_keyboard_10_n03085013_22820.png
cornet-s,5,659,NaN,knife,keyboard,7,5779_lp_dnn_7_keyboard_10_n04505470_4741.png
cornet-s,5,660,NaN,clock,keyboard,7,5780_lp_dnn_7_keyboard_10_n03085013_8007.png
cornet-s,5,661,NaN,cat,elephant,7,5781_lp_dnn_7_elephant_10_n02504458_3105.png
cornet-s,5,662,NaN,knife,elephant,7,5782_lp_dnn_7_elephant_10_n02504013_18005.png
cornet-s,5,663,NaN,knife,elephant,7,5783_lp_dnn_7_elephant_10_n02504458_13179.png
cornet-s,5,664,NaN,knife,elephant,7,5784_lp_dnn_7_elephant_10_n02504458_2628.png
cornet-s,5,665,NaN,bottle,elephant,7,5785_lp_dnn_7_elephant_10_n02504013_1784.png
cornet-s,5,666,NaN,bottle,elephant,7,5786_lp_dnn_7_elephant_10_n02504013_4278.png
cornet-s,5,667,NaN,knife,elephant,7,5787_lp_dnn_7_elephant_10_n02504458_3897.png
cornet-s,5,668,NaN,knife,elephant,7,5788_lp_dnn_7_elephant_10_n02504458_1464.png
cornet-s,5,669,NaN,knife,elephant,7,5789_lp_dnn_7_elephant_10_n02504458_1521.png
cornet-s,5,670,NaN,knife,elephant,7,5790_lp_dnn_7_elephant_10_n02504458_6880.png
cornet-s,5,671,NaN,knife,bicycle,7,5791_lp_dnn_7_bicycle_10_n03792782_33649.png
cornet-s,5,672,NaN,knife,bicycle,7,5792_lp_dnn_7_bicycle_10_n03792782_5557.png
cornet-s,5,673,NaN,knife,bicycle,7,5793_lp_dnn_7_bicycle_10_n02835271_4749.png
cornet-s,5,674,NaN,knife,bicycle,7,5794_lp_dnn_7_bicycle_10_n03792782_8374.png
cornet-s,5,675,NaN,knife,bicycle,7,5795_lp_dnn_7_bicycle_10_n03792782_9413.png
cornet-s,5,676,NaN,bear,bicycle,7,5796_lp_dnn_7_bicycle_10_n03792782_14012.png
cornet-s,5,677,NaN,knife,bicycle,7,5797_lp_dnn_7_bicycle_10_n02835271_20858.png
cornet-s,5,678,NaN,bear,bicycle,7,5798_lp_dnn_7_bicycle_10_n03792782_471.png
cornet-s,5,679,NaN,knife,bicycle,7,5799_lp_dnn_7_bicycle_10_n02835271_7350.png
cornet-s,5,680,NaN,knife,bicycle,7,5800_lp_dnn_7_bicycle_10_n03792782_18687.png
cornet-s,5,681,NaN,knife,airplane,7,5801_lp_dnn_7_airplane_10_n02690373_3729.png
cornet-s,5,682,NaN,clock,airplane,7,5802_lp_dnn_7_airplane_10_n02690373_9963.png
cornet-s,5,683,NaN,knife,airplane,7,5803_lp_dnn_7_airplane_10_n02690373_1615.png
cornet-s,5,684,NaN,knife,airplane,7,5804_lp_dnn_7_airplane_10_n02690373_2240.png
cornet-s,5,685,NaN,knife,airplane,7,5805_lp_dnn_7_airplane_10_n02690373_2379.png
cornet-s,5,686,NaN,knife,airplane,7,5806_lp_dnn_7_airplane_10_n02690373_3408.png
cornet-s,5,687,NaN,knife,airplane,7,5807_lp_dnn_7_airplane_10_n02690373_243.png
cornet-s,5,688,NaN,knife,airplane,7,5808_lp_dnn_7_airplane_10_n02690373_6663.png
cornet-s,5,689,NaN,airplane,airplane,7,5809_lp_dnn_7_airplane_10_n02690373_2611.png
cornet-s,5,690,NaN,knife,airplane,7,5810_lp_dnn_7_airplane_10_n02690373_1704.png
cornet-s,5,691,NaN,clock,clock,7,5811_lp_dnn_7_clock_10_n02708093_2094.png
cornet-s,5,692,NaN,keyboard,clock,7,5812_lp_dnn_7_clock_10_n02708093_6148.png
cornet-s,5,693,NaN,clock,clock,7,5813_lp_dnn_7_clock_10_n04548280_7354.png
cornet-s,5,694,NaN,clock,clock,7,5814_lp_dnn_7_clock_10_n03196217_11199.png
cornet-s,5,695,NaN,clock,clock,7,5815_lp_dnn_7_clock_10_n02708093_340.png
cornet-s,5,696,NaN,knife,clock,7,5816_lp_dnn_7_clock_10_n04548280_757.png
cornet-s,5,697,NaN,clock,clock,7,5817_lp_dnn_7_clock_10_n02708093_31.png
cornet-s,5,698,NaN,clock,clock,7,5818_lp_dnn_7_clock_10_n03196217_12131.png
cornet-s,5,699,NaN,keyboard,clock,7,5819_lp_dnn_7_clock_10_n02708093_2283.png
cornet-s,5,700,NaN,clock,clock,7,5820_lp_dnn_7_clock_10_n03196217_7808.png
cornet-s,5,701,NaN,truck,oven,7,5821_lp_dnn_7_oven_10_n04111531_21869.png
cornet-s,5,702,NaN,bottle,oven,7,5822_lp_dnn_7_oven_10_n04111531_6412.png
cornet-s,5,703,NaN,oven,oven,7,5823_lp_dnn_7_oven_10_n04111531_8963.png
cornet-s,5,704,NaN,oven,oven,7,5824_lp_dnn_7_oven_10_n04111531_9613.png
cornet-s,5,705,NaN,knife,oven,7,5825_lp_dnn_7_oven_10_n04111531_4113.png
cornet-s,5,706,NaN,knife,oven,7,5826_lp_dnn_7_oven_10_n04111531_15635.png
cornet-s,5,707,NaN,oven,oven,7,5827_lp_dnn_7_oven_10_n04111531_12702.png
cornet-s,5,708,NaN,knife,oven,7,5828_lp_dnn_7_oven_10_n04111531_22493.png
cornet-s,5,709,NaN,knife,oven,7,5829_lp_dnn_7_oven_10_n04111531_13128.png
cornet-s,5,710,NaN,bottle,oven,7,5830_lp_dnn_7_oven_10_n04111531_5727.png
cornet-s,5,711,NaN,knife,chair,7,5831_lp_dnn_7_chair_10_n04099969_2694.png
cornet-s,5,712,NaN,keyboard,chair,7,5832_lp_dnn_7_chair_10_n03376595_7772.png
cornet-s,5,713,NaN,bottle,chair,7,5833_lp_dnn_7_chair_10_n04099969_4041.png
cornet-s,5,714,NaN,bear,chair,7,5834_lp_dnn_7_chair_10_n02791124_4470.png
cornet-s,5,715,NaN,knife,chair,7,5835_lp_dnn_7_chair_10_n04099969_9243.png
cornet-s,5,716,NaN,oven,chair,7,5836_lp_dnn_7_chair_10_n04429376_11964.png
cornet-s,5,717,NaN,knife,chair,7,5837_lp_dnn_7_chair_10_n02791124_7824.png
cornet-s,5,718,NaN,knife,chair,7,5838_lp_dnn_7_chair_10_n02791124_16868.png
cornet-s,5,719,NaN,knife,chair,7,5839_lp_dnn_7_chair_10_n04429376_311.png
cornet-s,5,720,NaN,clock,chair,7,5840_lp_dnn_7_chair_10_n04099969_2398.png
cornet-s,5,721,NaN,knife,bear,7,5841_lp_dnn_7_bear_10_n02134418_13651.png
cornet-s,5,722,NaN,knife,bear,7,5842_lp_dnn_7_bear_10_n02133161_7000.png
cornet-s,5,723,NaN,dog,bear,7,5843_lp_dnn_7_bear_10_n02133161_16249.png
cornet-s,5,724,NaN,knife,bear,7,5844_lp_dnn_7_bear_10_n02132136_2489.png
cornet-s,5,725,NaN,bear,bear,7,5845_lp_dnn_7_bear_10_n02134084_6264.png
cornet-s,5,726,NaN,bottle,bear,7,5846_lp_dnn_7_bear_10_n02133161_4903.png
cornet-s,5,727,NaN,knife,bear,7,5847_lp_dnn_7_bear_10_n02134084_1802.png
cornet-s,5,728,NaN,knife,bear,7,5848_lp_dnn_7_bear_10_n02134084_3696.png
cornet-s,5,729,NaN,dog,bear,7,5849_lp_dnn_7_bear_10_n02134418_48.png
cornet-s,5,730,NaN,knife,bear,7,5850_lp_dnn_7_bear_10_n02132136_13097.png
cornet-s,5,731,NaN,knife,boat,7,5851_lp_dnn_7_boat_10_n04612504_1935.png
cornet-s,5,732,NaN,knife,boat,7,5852_lp_dnn_7_boat_10_n02951358_29382.png
cornet-s,5,733,NaN,knife,boat,7,5853_lp_dnn_7_boat_10_n02951358_14280.png
cornet-s,5,734,NaN,knife,boat,7,5854_lp_dnn_7_boat_10_n02951358_12436.png
cornet-s,5,735,NaN,knife,boat,7,5855_lp_dnn_7_boat_10_n04273569_27014.png
cornet-s,5,736,NaN,knife,boat,7,5856_lp_dnn_7_boat_10_n03344393_428.png
cornet-s,5,737,NaN,bottle,boat,7,5857_lp_dnn_7_boat_10_n03662601_14940.png
cornet-s,5,738,NaN,knife,boat,7,5858_lp_dnn_7_boat_10_n03662601_9926.png
cornet-s,5,739,NaN,knife,boat,7,5859_lp_dnn_7_boat_10_n03344393_3174.png
cornet-s,5,740,NaN,knife,boat,7,5860_lp_dnn_7_boat_10_n03344393_4213.png
cornet-s,5,741,NaN,bottle,cat,7,5861_lp_dnn_7_cat_10_n02123394_2450.png
cornet-s,5,742,NaN,knife,cat,7,5862_lp_dnn_7_cat_10_n02123394_2777.png
cornet-s,5,743,NaN,knife,cat,7,5863_lp_dnn_7_cat_10_n02123394_6693.png
cornet-s,5,744,NaN,cat,cat,7,5864_lp_dnn_7_cat_10_n02123159_1419.png
cornet-s,5,745,NaN,knife,cat,7,5865_lp_dnn_7_cat_10_n02123597_12507.png
cornet-s,5,746,NaN,knife,cat,7,5866_lp_dnn_7_cat_10_n02123597_13229.png
cornet-s,5,747,NaN,bottle,cat,7,5867_lp_dnn_7_cat_10_n02124075_2663.png
cornet-s,5,748,NaN,knife,cat,7,5868_lp_dnn_7_cat_10_n02123045_7335.png
cornet-s,5,749,NaN,knife,cat,7,5869_lp_dnn_7_cat_10_n02123597_32577.png
cornet-s,5,750,NaN,bear,cat,7,5870_lp_dnn_7_cat_10_n02123394_1441.png
cornet-s,5,751,NaN,bottle,bottle,7,5871_lp_dnn_7_bottle_10_n04557648_3530.png
cornet-s,5,752,NaN,knife,bottle,7,5872_lp_dnn_7_bottle_10_n04557648_9952.png
cornet-s,5,753,NaN,knife,bottle,7,5873_lp_dnn_7_bottle_10_n04560804_5.png
cornet-s,5,754,NaN,knife,bottle,7,5874_lp_dnn_7_bottle_10_n03983396_2287.png
cornet-s,5,755,NaN,bottle,bottle,7,5875_lp_dnn_7_bottle_10_n04591713_6707.png
cornet-s,5,756,NaN,knife,bottle,7,5876_lp_dnn_7_bottle_10_n04557648_2714.png
cornet-s,5,757,NaN,knife,bottle,7,5877_lp_dnn_7_bottle_10_n03937543_5703.png
cornet-s,5,758,NaN,bottle,bottle,7,5878_lp_dnn_7_bottle_10_n04560804_15941.png
cornet-s,5,759,NaN,bottle,bottle,7,5879_lp_dnn_7_bottle_10_n03937543_2927.png
cornet-s,5,760,NaN,bottle,bottle,7,5880_lp_dnn_7_bottle_10_n04560804_15441.png
cornet-s,5,761,NaN,knife,truck,7,5881_lp_dnn_7_truck_10_n03417042_3518.png
cornet-s,5,762,NaN,truck,truck,7,5882_lp_dnn_7_truck_10_n03796401_19114.png
cornet-s,5,763,NaN,keyboard,truck,7,5883_lp_dnn_7_truck_10_n03417042_6420.png
cornet-s,5,764,NaN,elephant,truck,7,5884_lp_dnn_7_truck_10_n03417042_6623.png
cornet-s,5,765,NaN,bottle,truck,7,5885_lp_dnn_7_truck_10_n03417042_12170.png
cornet-s,5,766,NaN,knife,truck,7,5886_lp_dnn_7_truck_10_n03417042_17645.png
cornet-s,5,767,NaN,knife,truck,7,5887_lp_dnn_7_truck_10_n03796401_18936.png
cornet-s,5,768,NaN,truck,truck,7,5888_lp_dnn_7_truck_10_n03417042_26939.png
cornet-s,5,769,NaN,bottle,truck,7,5889_lp_dnn_7_truck_10_n03417042_28707.png
cornet-s,5,770,NaN,knife,truck,7,5890_lp_dnn_7_truck_10_n03417042_3479.png
cornet-s,5,771,NaN,truck,car,7,5891_lp_dnn_7_car_10_n02814533_6150.png
cornet-s,5,772,NaN,knife,car,7,5892_lp_dnn_7_car_10_n03100240_1903.png
cornet-s,5,773,NaN,knife,car,7,5893_lp_dnn_7_car_10_n03100240_16690.png
cornet-s,5,774,NaN,truck,car,7,5894_lp_dnn_7_car_10_n03100240_18304.png
cornet-s,5,775,NaN,keyboard,car,7,5895_lp_dnn_7_car_10_n03100240_2591.png
cornet-s,5,776,NaN,knife,car,7,5896_lp_dnn_7_car_10_n04285008_7249.png
cornet-s,5,777,NaN,keyboard,car,7,5897_lp_dnn_7_car_10_n04285008_16604.png
cornet-s,5,778,NaN,truck,car,7,5898_lp_dnn_7_car_10_n03100240_3936.png
cornet-s,5,779,NaN,knife,car,7,5899_lp_dnn_7_car_10_n04285008_13739.png
cornet-s,5,780,NaN,knife,car,7,5900_lp_dnn_7_car_10_n04285008_1140.png
cornet-s,5,781,NaN,bottle,bird,7,5901_lp_dnn_7_bird_10_n01514859_7087.png
cornet-s,5,782,NaN,knife,bird,7,5902_lp_dnn_7_bird_10_n01616318_14512.png
cornet-s,5,783,NaN,knife,bird,7,5903_lp_dnn_7_bird_10_n01819313_6739.png
cornet-s,5,784,NaN,knife,bird,7,5904_lp_dnn_7_bird_10_n02033041_9947.png
cornet-s,5,785,NaN,knife,bird,7,5905_lp_dnn_7_bird_10_n01616318_8599.png
cornet-s,5,786,NaN,keyboard,bird,7,5906_lp_dnn_7_bird_10_n02013706_1092.png
cornet-s,5,787,NaN,knife,bird,7,5907_lp_dnn_7_bird_10_n02051845_323.png
cornet-s,5,788,NaN,knife,bird,7,5908_lp_dnn_7_bird_10_n01828970_1718.png
cornet-s,5,789,NaN,knife,bird,7,5909_lp_dnn_7_bird_10_n02006656_10580.png
cornet-s,5,790,NaN,knife,bird,7,5910_lp_dnn_7_bird_10_n02013706_9550.png
cornet-s,5,791,NaN,bottle,dog,7,5911_lp_dnn_7_dog_10_n02111500_6261.png
cornet-s,5,792,NaN,dog,dog,7,5912_lp_dnn_7_dog_10_n02102318_22263.png
cornet-s,5,793,NaN,bear,dog,7,5913_lp_dnn_7_dog_10_n02097474_462.png
cornet-s,5,794,NaN,knife,dog,7,5914_lp_dnn_7_dog_10_n02113978_8626.png
cornet-s,5,795,NaN,cat,dog,7,5915_lp_dnn_7_dog_10_n02106662_5979.png
cornet-s,5,796,NaN,cat,dog,7,5916_lp_dnn_7_dog_10_n02102177_255.png
cornet-s,5,797,NaN,knife,dog,7,5917_lp_dnn_7_dog_10_n02094258_5438.png
cornet-s,5,798,NaN,bottle,dog,7,5918_lp_dnn_7_dog_10_n02091244_9751.png
cornet-s,5,799,NaN,bottle,dog,7,5919_lp_dnn_7_dog_10_n02089867_6231.png
cornet-s,5,800,NaN,knife,dog,7,5920_lp_dnn_7_dog_10_n02100735_9302.png
cornet-s,5,801,NaN,knife,knife,10,5921_lp_dnn_10_knife_10_n03041632_44238.png
cornet-s,5,802,NaN,knife,knife,10,5922_lp_dnn_10_knife_10_n03041632_55711.png
cornet-s,5,803,NaN,dog,knife,10,5923_lp_dnn_10_knife_10_n03041632_24376.png
cornet-s,5,804,NaN,knife,knife,10,5924_lp_dnn_10_knife_10_n03041632_37949.png
cornet-s,5,805,NaN,knife,knife,10,5925_lp_dnn_10_knife_10_n03041632_15444.png
cornet-s,5,806,NaN,knife,knife,10,5926_lp_dnn_10_knife_10_n03041632_81004.png
cornet-s,5,807,NaN,clock,knife,10,5927_lp_dnn_10_knife_10_n03041632_48062.png
cornet-s,5,808,NaN,bear,knife,10,5928_lp_dnn_10_knife_10_n03041632_206.png
cornet-s,5,809,NaN,knife,knife,10,5929_lp_dnn_10_knife_10_n03041632_29858.png
cornet-s,5,810,NaN,knife,knife,10,5930_lp_dnn_10_knife_10_n03041632_31037.png
cornet-s,5,811,NaN,knife,keyboard,10,5931_lp_dnn_10_keyboard_10_n03085013_24144.png
cornet-s,5,812,NaN,knife,keyboard,10,5932_lp_dnn_10_keyboard_10_n04505470_3905.png
cornet-s,5,813,NaN,knife,keyboard,10,5933_lp_dnn_10_keyboard_10_n03085013_7913.png
cornet-s,5,814,NaN,keyboard,keyboard,10,5934_lp_dnn_10_keyboard_10_n03085013_22700.png
cornet-s,5,815,NaN,keyboard,keyboard,10,5935_lp_dnn_10_keyboard_10_n04505470_4827.png
cornet-s,5,816,NaN,keyboard,keyboard,10,5936_lp_dnn_10_keyboard_10_n04505470_5024.png
cornet-s,5,817,NaN,keyboard,keyboard,10,5937_lp_dnn_10_keyboard_10_n03085013_2335.png
cornet-s,5,818,NaN,knife,keyboard,10,5938_lp_dnn_10_keyboard_10_n03085013_23563.png
cornet-s,5,819,NaN,knife,keyboard,10,5939_lp_dnn_10_keyboard_10_n04505470_9952.png
cornet-s,5,820,NaN,knife,keyboard,10,5940_lp_dnn_10_keyboard_10_n04505470_4369.png
cornet-s,5,821,NaN,bear,elephant,10,5941_lp_dnn_10_elephant_10_n02504013_22388.png
cornet-s,5,822,NaN,bottle,elephant,10,5942_lp_dnn_10_elephant_10_n02504458_6033.png
cornet-s,5,823,NaN,knife,elephant,10,5943_lp_dnn_10_elephant_10_n02504458_13406.png
cornet-s,5,824,NaN,knife,elephant,10,5944_lp_dnn_10_elephant_10_n02504458_6261.png
cornet-s,5,825,NaN,knife,elephant,10,5945_lp_dnn_10_elephant_10_n02504458_5902.png
cornet-s,5,826,NaN,knife,elephant,10,5946_lp_dnn_10_elephant_10_n02504458_12586.png
cornet-s,5,827,NaN,dog,elephant,10,5947_lp_dnn_10_elephant_10_n02504013_868.png
cornet-s,5,828,NaN,bottle,elephant,10,5948_lp_dnn_10_elephant_10_n02504458_373.png
cornet-s,5,829,NaN,dog,elephant,10,5949_lp_dnn_10_elephant_10_n02504458_57.png
cornet-s,5,830,NaN,dog,elephant,10,5950_lp_dnn_10_elephant_10_n02504013_7553.png
cornet-s,5,831,NaN,knife,bicycle,10,5951_lp_dnn_10_bicycle_10_n02835271_13551.png
cornet-s,5,832,NaN,knife,bicycle,10,5952_lp_dnn_10_bicycle_10_n02835271_4015.png
cornet-s,5,833,NaN,knife,bicycle,10,5953_lp_dnn_10_bicycle_10_n02835271_8982.png
cornet-s,5,834,NaN,bear,bicycle,10,5954_lp_dnn_10_bicycle_10_n03792782_50335.png
cornet-s,5,835,NaN,knife,bicycle,10,5955_lp_dnn_10_bicycle_10_n02835271_10827.png
cornet-s,5,836,NaN,knife,bicycle,10,5956_lp_dnn_10_bicycle_10_n02835271_9944.png
cornet-s,5,837,NaN,knife,bicycle,10,5957_lp_dnn_10_bicycle_10_n02835271_1738.png
cornet-s,5,838,NaN,knife,bicycle,10,5958_lp_dnn_10_bicycle_10_n03792782_68319.png
cornet-s,5,839,NaN,bottle,bicycle,10,5959_lp_dnn_10_bicycle_10_n02835271_4374.png
cornet-s,5,840,NaN,knife,bicycle,10,5960_lp_dnn_10_bicycle_10_n03792782_29509.png
cornet-s,5,841,NaN,knife,airplane,10,5961_lp_dnn_10_airplane_10_n02690373_9071.png
cornet-s,5,842,NaN,knife,airplane,10,5962_lp_dnn_10_airplane_10_n02690373_8417.png
cornet-s,5,843,NaN,knife,airplane,10,5963_lp_dnn_10_airplane_10_n02690373_8925.png
cornet-s,5,844,NaN,knife,airplane,10,5964_lp_dnn_10_airplane_10_n02690373_10481.png
cornet-s,5,845,NaN,knife,airplane,10,5965_lp_dnn_10_airplane_10_n02690373_4175.png
cornet-s,5,846,NaN,knife,airplane,10,5966_lp_dnn_10_airplane_10_n02690373_980.png
cornet-s,5,847,NaN,knife,airplane,10,5967_lp_dnn_10_airplane_10_n02690373_4495.png
cornet-s,5,848,NaN,knife,airplane,10,5968_lp_dnn_10_airplane_10_n02690373_427.png
cornet-s,5,849,NaN,knife,airplane,10,5969_lp_dnn_10_airplane_10_n02690373_191.png
cornet-s,5,850,NaN,knife,airplane,10,5970_lp_dnn_10_airplane_10_n02690373_817.png
cornet-s,5,851,NaN,knife,clock,10,5971_lp_dnn_10_clock_10_n02708093_2242.png
cornet-s,5,852,NaN,knife,clock,10,5972_lp_dnn_10_clock_10_n03196217_108.png
cornet-s,5,853,NaN,clock,clock,10,5973_lp_dnn_10_clock_10_n03196217_868.png
cornet-s,5,854,NaN,bottle,clock,10,5974_lp_dnn_10_clock_10_n04548280_5076.png
cornet-s,5,855,NaN,oven,clock,10,5975_lp_dnn_10_clock_10_n02708093_6673.png
cornet-s,5,856,NaN,knife,clock,10,5976_lp_dnn_10_clock_10_n03196217_1219.png
cornet-s,5,857,NaN,clock,clock,10,5977_lp_dnn_10_clock_10_n02708093_5030.png
cornet-s,5,858,NaN,clock,clock,10,5978_lp_dnn_10_clock_10_n03196217_10936.png
cornet-s,5,859,NaN,clock,clock,10,5979_lp_dnn_10_clock_10_n03196217_9624.png
cornet-s,5,860,NaN,clock,clock,10,5980_lp_dnn_10_clock_10_n03196217_421.png
cornet-s,5,861,NaN,knife,oven,10,5981_lp_dnn_10_oven_10_n04111531_6479.png
cornet-s,5,862,NaN,knife,oven,10,5982_lp_dnn_10_oven_10_n04111531_1794.png
cornet-s,5,863,NaN,bottle,oven,10,5983_lp_dnn_10_oven_10_n04111531_2381.png
cornet-s,5,864,NaN,knife,oven,10,5984_lp_dnn_10_oven_10_n04111531_6094.png
cornet-s,5,865,NaN,bottle,oven,10,5985_lp_dnn_10_oven_10_n04111531_924.png
cornet-s,5,866,NaN,bear,oven,10,5986_lp_dnn_10_oven_10_n04111531_13172.png
cornet-s,5,867,NaN,knife,oven,10,5987_lp_dnn_10_oven_10_n04111531_10011.png
cornet-s,5,868,NaN,knife,oven,10,5988_lp_dnn_10_oven_10_n04111531_1898.png
cornet-s,5,869,NaN,knife,oven,10,5989_lp_dnn_10_oven_10_n04111531_695.png
cornet-s,5,870,NaN,knife,oven,10,5990_lp_dnn_10_oven_10_n04111531_3477.png
cornet-s,5,871,NaN,knife,chair,10,5991_lp_dnn_10_chair_10_n03376595_1556.png
cornet-s,5,872,NaN,knife,chair,10,5992_lp_dnn_10_chair_10_n03376595_2234.png
cornet-s,5,873,NaN,keyboard,chair,10,5993_lp_dnn_10_chair_10_n02791124_2379.png
cornet-s,5,874,NaN,knife,chair,10,5994_lp_dnn_10_chair_10_n02791124_5845.png
cornet-s,5,875,NaN,knife,chair,10,5995_lp_dnn_10_chair_10_n02791124_3138.png
cornet-s,5,876,NaN,bear,chair,10,5996_lp_dnn_10_chair_10_n02791124_2369.png
cornet-s,5,877,NaN,knife,chair,10,5997_lp_dnn_10_chair_10_n03376595_2465.png
cornet-s,5,878,NaN,knife,chair,10,5998_lp_dnn_10_chair_10_n04099969_4825.png
cornet-s,5,879,NaN,knife,chair,10,5999_lp_dnn_10_chair_10_n02791124_1115.png
cornet-s,5,880,NaN,dog,chair,10,6000_lp_dnn_10_chair_10_n02791124_6380.png
cornet-s,5,881,NaN,bear,bear,10,6001_lp_dnn_10_bear_10_n02133161_19652.png
cornet-s,5,882,NaN,dog,bear,10,6002_lp_dnn_10_bear_10_n02134084_23313.png
cornet-s,5,883,NaN,bear,bear,10,6003_lp_dnn_10_bear_10_n02132136_3331.png
cornet-s,5,884,NaN,knife,bear,10,6004_lp_dnn_10_bear_10_n02132136_21799.png
cornet-s,5,885,NaN,knife,bear,10,6005_lp_dnn_10_bear_10_n02132136_6263.png
cornet-s,5,886,NaN,knife,bear,10,6006_lp_dnn_10_bear_10_n02134084_3564.png
cornet-s,5,887,NaN,dog,bear,10,6007_lp_dnn_10_bear_10_n02134084_10289.png
cornet-s,5,888,NaN,knife,bear,10,6008_lp_dnn_10_bear_10_n02132136_5158.png
cornet-s,5,889,NaN,bear,bear,10,6009_lp_dnn_10_bear_10_n02134084_19803.png
cornet-s,5,890,NaN,knife,bear,10,6010_lp_dnn_10_bear_10_n02133161_4857.png
cornet-s,5,891,NaN,knife,boat,10,6011_lp_dnn_10_boat_10_n02951358_29499.png
cornet-s,5,892,NaN,knife,boat,10,6012_lp_dnn_10_boat_10_n03344393_6297.png
cornet-s,5,893,NaN,knife,boat,10,6013_lp_dnn_10_boat_10_n03662601_25621.png
cornet-s,5,894,NaN,knife,boat,10,6014_lp_dnn_10_boat_10_n02951358_34418.png
cornet-s,5,895,NaN,knife,boat,10,6015_lp_dnn_10_boat_10_n04612504_18059.png
cornet-s,5,896,NaN,knife,boat,10,6016_lp_dnn_10_boat_10_n03662601_4787.png
cornet-s,5,897,NaN,bottle,boat,10,6017_lp_dnn_10_boat_10_n03662601_15416.png
cornet-s,5,898,NaN,keyboard,boat,10,6018_lp_dnn_10_boat_10_n03662601_1524.png
cornet-s,5,899,NaN,keyboard,boat,10,6019_lp_dnn_10_boat_10_n02951358_30269.png
cornet-s,5,900,NaN,dog,boat,10,6020_lp_dnn_10_boat_10_n04612504_9368.png
cornet-s,5,901,NaN,knife,cat,10,6021_lp_dnn_10_cat_10_n02123159_6696.png
cornet-s,5,902,NaN,knife,cat,10,6022_lp_dnn_10_cat_10_n02125311_47265.png
cornet-s,5,903,NaN,knife,cat,10,6023_lp_dnn_10_cat_10_n02123597_225.png
cornet-s,5,904,NaN,knife,cat,10,6024_lp_dnn_10_cat_10_n02123159_716.png
cornet-s,5,905,NaN,knife,cat,10,6025_lp_dnn_10_cat_10_n02124075_2884.png
cornet-s,5,906,NaN,knife,cat,10,6026_lp_dnn_10_cat_10_n02123159_3043.png
cornet-s,5,907,NaN,knife,cat,10,6027_lp_dnn_10_cat_10_n02123394_7402.png
cornet-s,5,908,NaN,bear,cat,10,6028_lp_dnn_10_cat_10_n02123159_6610.png
cornet-s,5,909,NaN,bottle,cat,10,6029_lp_dnn_10_cat_10_n02123159_4318.png
cornet-s,5,910,NaN,knife,cat,10,6030_lp_dnn_10_cat_10_n02123159_2416.png
cornet-s,5,911,NaN,dog,bottle,10,6031_lp_dnn_10_bottle_10_n04557648_20275.png
cornet-s,5,912,NaN,knife,bottle,10,6032_lp_dnn_10_bottle_10_n02823428_1618.png
cornet-s,5,913,NaN,cat,bottle,10,6033_lp_dnn_10_bottle_10_n02823428_2479.png
cornet-s,5,914,NaN,knife,bottle,10,6034_lp_dnn_10_bottle_10_n04557648_23801.png
cornet-s,5,915,NaN,knife,bottle,10,6035_lp_dnn_10_bottle_10_n03983396_7082.png
cornet-s,5,916,NaN,knife,bottle,10,6036_lp_dnn_10_bottle_10_n04560804_18539.png
cornet-s,5,917,NaN,knife,bottle,10,6037_lp_dnn_10_bottle_10_n04557648_349.png
cornet-s,5,918,NaN,bottle,bottle,10,6038_lp_dnn_10_bottle_10_n04557648_4428.png
cornet-s,5,919,NaN,keyboard,bottle,10,6039_lp_dnn_10_bottle_10_n03937543_11953.png
cornet-s,5,920,NaN,knife,bottle,10,6040_lp_dnn_10_bottle_10_n04560804_6858.png
cornet-s,5,921,NaN,knife,truck,10,6041_lp_dnn_10_truck_10_n03417042_7002.png
cornet-s,5,922,NaN,knife,truck,10,6042_lp_dnn_10_truck_10_n03417042_14717.png
cornet-s,5,923,NaN,knife,truck,10,6043_lp_dnn_10_truck_10_n03796401_22263.png
cornet-s,5,924,NaN,bottle,truck,10,6044_lp_dnn_10_truck_10_n04467665_2797.png
cornet-s,5,925,NaN,knife,truck,10,6045_lp_dnn_10_truck_10_n03417042_26919.png
cornet-s,5,926,NaN,knife,truck,10,6046_lp_dnn_10_truck_10_n03417042_9668.png
cornet-s,5,927,NaN,knife,truck,10,6047_lp_dnn_10_truck_10_n04467665_58341.png
cornet-s,5,928,NaN,knife,truck,10,6048_lp_dnn_10_truck_10_n04467665_3876.png
cornet-s,5,929,NaN,knife,truck,10,6049_lp_dnn_10_truck_10_n04467665_33667.png
cornet-s,5,930,NaN,knife,truck,10,6050_lp_dnn_10_truck_10_n03796401_6684.png
cornet-s,5,931,NaN,knife,car,10,6051_lp_dnn_10_car_10_n02814533_24007.png
cornet-s,5,932,NaN,knife,car,10,6052_lp_dnn_10_car_10_n03100240_9099.png
cornet-s,5,933,NaN,knife,car,10,6053_lp_dnn_10_car_10_n04285008_11295.png
cornet-s,5,934,NaN,knife,car,10,6054_lp_dnn_10_car_10_n02814533_149.png
cornet-s,5,935,NaN,knife,car,10,6055_lp_dnn_10_car_10_n02814533_53382.png
cornet-s,5,936,NaN,knife,car,10,6056_lp_dnn_10_car_10_n02814533_65759.png
cornet-s,5,937,NaN,knife,car,10,6057_lp_dnn_10_car_10_n03100240_584.png
cornet-s,5,938,NaN,knife,car,10,6058_lp_dnn_10_car_10_n02814533_90053.png
cornet-s,5,939,NaN,knife,car,10,6059_lp_dnn_10_car_10_n02814533_58398.png
cornet-s,5,940,NaN,knife,car,10,6060_lp_dnn_10_car_10_n02814533_21263.png
cornet-s,5,941,NaN,knife,bird,10,6061_lp_dnn_10_bird_10_n01829413_7817.png
cornet-s,5,942,NaN,knife,bird,10,6062_lp_dnn_10_bird_10_n01616318_2101.png
cornet-s,5,943,NaN,knife,bird,10,6063_lp_dnn_10_bird_10_n01601694_12159.png
cornet-s,5,944,NaN,knife,bird,10,6064_lp_dnn_10_bird_10_n02002556_3731.png
cornet-s,5,945,NaN,knife,bird,10,6065_lp_dnn_10_bird_10_n02025239_7273.png
cornet-s,5,946,NaN,knife,bird,10,6066_lp_dnn_10_bird_10_n02002724_19807.png
cornet-s,5,947,NaN,knife,bird,10,6067_lp_dnn_10_bird_10_n02018795_16717.png
cornet-s,5,948,NaN,knife,bird,10,6068_lp_dnn_10_bird_10_n01855032_5722.png
cornet-s,5,949,NaN,knife,bird,10,6069_lp_dnn_10_bird_10_n01860187_9735.png
cornet-s,5,950,NaN,knife,bird,10,6070_lp_dnn_10_bird_10_n01531178_13428.png
cornet-s,5,951,NaN,bottle,dog,10,6071_lp_dnn_10_dog_10_n02106550_4874.png
cornet-s,5,952,NaN,cat,dog,10,6072_lp_dnn_10_dog_10_n02106166_22738.png
cornet-s,5,953,NaN,knife,dog,10,6073_lp_dnn_10_dog_10_n02110063_15548.png
cornet-s,5,954,NaN,knife,dog,10,6074_lp_dnn_10_dog_10_n02096051_7506.png
cornet-s,5,955,NaN,knife,dog,10,6075_lp_dnn_10_dog_10_n02113023_7286.png
cornet-s,5,956,NaN,knife,dog,10,6076_lp_dnn_10_dog_10_n02097047_6553.png
cornet-s,5,957,NaN,knife,dog,10,6077_lp_dnn_10_dog_10_n02093256_969.png
cornet-s,5,958,NaN,knife,dog,10,6078_lp_dnn_10_dog_10_n02111500_3956.png
cornet-s,5,959,NaN,bear,dog,10,6079_lp_dnn_10_dog_10_n02088094_2698.png
cornet-s,5,960,NaN,clock,dog,10,6080_lp_dnn_10_dog_10_n02107683_3671.png
cornet-s,5,961,NaN,knife,knife,15,6081_lp_dnn_15_knife_10_n03041632_38433.png
cornet-s,5,962,NaN,dog,knife,15,6082_lp_dnn_15_knife_10_n03041632_10140.png
cornet-s,5,963,NaN,knife,knife,15,6083_lp_dnn_15_knife_10_n03041632_21590.png
cornet-s,5,964,NaN,clock,knife,15,6084_lp_dnn_15_knife_10_n03041632_4708.png
cornet-s,5,965,NaN,knife,knife,15,6085_lp_dnn_15_knife_10_n03041632_31367.png
cornet-s,5,966,NaN,knife,knife,15,6086_lp_dnn_15_knife_10_n03041632_11773.png
cornet-s,5,967,NaN,dog,knife,15,6087_lp_dnn_15_knife_10_n03041632_27929.png
cornet-s,5,968,NaN,knife,knife,15,6088_lp_dnn_15_knife_10_n03041632_104379.png
cornet-s,5,969,NaN,knife,knife,15,6089_lp_dnn_15_knife_10_n03041632_39883.png
cornet-s,5,970,NaN,knife,knife,15,6090_lp_dnn_15_knife_10_n03041632_84240.png
cornet-s,5,971,NaN,knife,keyboard,15,6091_lp_dnn_15_keyboard_10_n03085013_21641.png
cornet-s,5,972,NaN,knife,keyboard,15,6092_lp_dnn_15_keyboard_10_n04505470_4105.png
cornet-s,5,973,NaN,knife,keyboard,15,6093_lp_dnn_15_keyboard_10_n03085013_20673.png
cornet-s,5,974,NaN,knife,keyboard,15,6094_lp_dnn_15_keyboard_10_n03085013_2300.png
cornet-s,5,975,NaN,knife,keyboard,15,6095_lp_dnn_15_keyboard_10_n03085013_21444.png
cornet-s,5,976,NaN,knife,keyboard,15,6096_lp_dnn_15_keyboard_10_n04505470_3947.png
cornet-s,5,977,NaN,knife,keyboard,15,6097_lp_dnn_15_keyboard_10_n03085013_4012.png
cornet-s,5,978,NaN,knife,keyboard,15,6098_lp_dnn_15_keyboard_10_n03085013_19611.png
cornet-s,5,979,NaN,knife,keyboard,15,6099_lp_dnn_15_keyboard_10_n03085013_23239.png
cornet-s,5,980,NaN,knife,keyboard,15,6100_lp_dnn_15_keyboard_10_n03085013_23118.png
cornet-s,5,981,NaN,knife,elephant,15,6101_lp_dnn_15_elephant_10_n02504013_24486.png
cornet-s,5,982,NaN,knife,elephant,15,6102_lp_dnn_15_elephant_10_n02504458_7221.png
cornet-s,5,983,NaN,knife,elephant,15,6103_lp_dnn_15_elephant_10_n02504458_908.png
cornet-s,5,984,NaN,knife,elephant,15,6104_lp_dnn_15_elephant_10_n02504458_325.png
cornet-s,5,985,NaN,knife,elephant,15,6105_lp_dnn_15_elephant_10_n02504458_1067.png
cornet-s,5,986,NaN,knife,elephant,15,6106_lp_dnn_15_elephant_10_n02504013_6376.png
cornet-s,5,987,NaN,knife,elephant,15,6107_lp_dnn_15_elephant_10_n02504458_6132.png
cornet-s,5,988,NaN,knife,elephant,15,6108_lp_dnn_15_elephant_10_n02504458_8172.png
cornet-s,5,989,NaN,knife,elephant,15,6109_lp_dnn_15_elephant_10_n02504458_3171.png
cornet-s,5,990,NaN,knife,elephant,15,6110_lp_dnn_15_elephant_10_n02504013_2498.png
cornet-s,5,991,NaN,knife,bicycle,15,6111_lp_dnn_15_bicycle_10_n03792782_12570.png
cornet-s,5,992,NaN,knife,bicycle,15,6112_lp_dnn_15_bicycle_10_n03792782_16819.png
cornet-s,5,993,NaN,knife,bicycle,15,6113_lp_dnn_15_bicycle_10_n03792782_13729.png
cornet-s,5,994,NaN,knife,bicycle,15,6114_lp_dnn_15_bicycle_10_n02835271_19565.png
cornet-s,5,995,NaN,knife,bicycle,15,6115_lp_dnn_15_bicycle_10_n02835271_20657.png
cornet-s,5,996,NaN,knife,bicycle,15,6116_lp_dnn_15_bicycle_10_n02835271_942.png
cornet-s,5,997,NaN,knife,bicycle,15,6117_lp_dnn_15_bicycle_10_n03792782_55401.png
cornet-s,5,998,NaN,knife,bicycle,15,6118_lp_dnn_15_bicycle_10_n02835271_2893.png
cornet-s,5,999,NaN,knife,bicycle,15,6119_lp_dnn_15_bicycle_10_n03792782_10547.png
cornet-s,5,1000,NaN,knife,bicycle,15,6120_lp_dnn_15_bicycle_10_n03792782_3774.png
cornet-s,5,1001,NaN,knife,airplane,15,6121_lp_dnn_15_airplane_10_n02690373_13585.png
cornet-s,5,1002,NaN,knife,airplane,15,6122_lp_dnn_15_airplane_10_n02690373_4578.png
cornet-s,5,1003,NaN,knife,airplane,15,6123_lp_dnn_15_airplane_10_n02690373_18412.png
cornet-s,5,1004,NaN,knife,airplane,15,6124_lp_dnn_15_airplane_10_n02690373_6665.png
cornet-s,5,1005,NaN,knife,airplane,15,6125_lp_dnn_15_airplane_10_n02690373_6223.png
cornet-s,5,1006,NaN,knife,airplane,15,6126_lp_dnn_15_airplane_10_n02690373_5465.png
cornet-s,5,1007,NaN,knife,airplane,15,6127_lp_dnn_15_airplane_10_n02690373_349.png
cornet-s,5,1008,NaN,knife,airplane,15,6128_lp_dnn_15_airplane_10_n02690373_9335.png
cornet-s,5,1009,NaN,knife,airplane,15,6129_lp_dnn_15_airplane_10_n02690373_3383.png
cornet-s,5,1010,NaN,knife,airplane,15,6130_lp_dnn_15_airplane_10_n02690373_4070.png
cornet-s,5,1011,NaN,knife,clock,15,6131_lp_dnn_15_clock_10_n04548280_8051.png
cornet-s,5,1012,NaN,knife,clock,15,6132_lp_dnn_15_clock_10_n04548280_8646.png
cornet-s,5,1013,NaN,knife,clock,15,6133_lp_dnn_15_clock_10_n04548280_22640.png
cornet-s,5,1014,NaN,knife,clock,15,6134_lp_dnn_15_clock_10_n03196217_775.png
cornet-s,5,1015,NaN,knife,clock,15,6135_lp_dnn_15_clock_10_n03196217_9160.png
cornet-s,5,1016,NaN,knife,clock,15,6136_lp_dnn_15_clock_10_n02708093_616.png
cornet-s,5,1017,NaN,knife,clock,15,6137_lp_dnn_15_clock_10_n04548280_17536.png
cornet-s,5,1018,NaN,knife,clock,15,6138_lp_dnn_15_clock_10_n04548280_8170.png
cornet-s,5,1019,NaN,knife,clock,15,6139_lp_dnn_15_clock_10_n03196217_1473.png
cornet-s,5,1020,NaN,knife,clock,15,6140_lp_dnn_15_clock_10_n02708093_394.png
cornet-s,5,1021,NaN,knife,oven,15,6141_lp_dnn_15_oven_10_n04111531_6609.png
cornet-s,5,1022,NaN,knife,oven,15,6142_lp_dnn_15_oven_10_n04111531_15718.png
cornet-s,5,1023,NaN,knife,oven,15,6143_lp_dnn_15_oven_10_n04111531_8910.png
cornet-s,5,1024,NaN,knife,oven,15,6144_lp_dnn_15_oven_10_n04111531_18916.png
cornet-s,5,1025,NaN,knife,oven,15,6145_lp_dnn_15_oven_10_n04111531_9915.png
cornet-s,5,1026,NaN,knife,oven,15,6146_lp_dnn_15_oven_10_n04111531_9695.png
cornet-s,5,1027,NaN,knife,oven,15,6147_lp_dnn_15_oven_10_n04111531_27.png
cornet-s,5,1028,NaN,knife,oven,15,6148_lp_dnn_15_oven_10_n04111531_18648.png
cornet-s,5,1029,NaN,knife,oven,15,6149_lp_dnn_15_oven_10_n04111531_2677.png
cornet-s,5,1030,NaN,knife,oven,15,6150_lp_dnn_15_oven_10_n04111531_452.png
cornet-s,5,1031,NaN,knife,chair,15,6151_lp_dnn_15_chair_10_n04099969_1028.png
cornet-s,5,1032,NaN,knife,chair,15,6152_lp_dnn_15_chair_10_n04099969_24041.png
cornet-s,5,1033,NaN,knife,chair,15,6153_lp_dnn_15_chair_10_n04429376_12354.png
cornet-s,5,1034,NaN,knife,chair,15,6154_lp_dnn_15_chair_10_n04429376_30836.png
cornet-s,5,1035,NaN,knife,chair,15,6155_lp_dnn_15_chair_10_n04099969_25322.png
cornet-s,5,1036,NaN,knife,chair,15,6156_lp_dnn_15_chair_10_n03376595_7592.png
cornet-s,5,1037,NaN,knife,chair,15,6157_lp_dnn_15_chair_10_n02791124_3436.png
cornet-s,5,1038,NaN,knife,chair,15,6158_lp_dnn_15_chair_10_n04429376_17100.png
cornet-s,5,1039,NaN,knife,chair,15,6159_lp_dnn_15_chair_10_n03376595_2848.png
cornet-s,5,1040,NaN,knife,chair,15,6160_lp_dnn_15_chair_10_n03376595_2809.png
cornet-s,5,1041,NaN,knife,bear,15,6161_lp_dnn_15_bear_10_n02133161_716.png
cornet-s,5,1042,NaN,knife,bear,15,6162_lp_dnn_15_bear_10_n02134084_16745.png
cornet-s,5,1043,NaN,knife,bear,15,6163_lp_dnn_15_bear_10_n02134418_625.png
cornet-s,5,1044,NaN,knife,bear,15,6164_lp_dnn_15_bear_10_n02134418_3267.png
cornet-s,5,1045,NaN,knife,bear,15,6165_lp_dnn_15_bear_10_n02132136_10134.png
cornet-s,5,1046,NaN,knife,bear,15,6166_lp_dnn_15_bear_10_n02134418_236.png
cornet-s,5,1047,NaN,knife,bear,15,6167_lp_dnn_15_bear_10_n02134084_16430.png
cornet-s,5,1048,NaN,knife,bear,15,6168_lp_dnn_15_bear_10_n02132136_1846.png
cornet-s,5,1049,NaN,knife,bear,15,6169_lp_dnn_15_bear_10_n02133161_215.png
cornet-s,5,1050,NaN,knife,bear,15,6170_lp_dnn_15_bear_10_n02132136_1700.png
cornet-s,5,1051,NaN,knife,boat,15,6171_lp_dnn_15_boat_10_n03344393_1657.png
cornet-s,5,1052,NaN,knife,boat,15,6172_lp_dnn_15_boat_10_n02951358_12046.png
cornet-s,5,1053,NaN,knife,boat,15,6173_lp_dnn_15_boat_10_n04612504_4302.png
cornet-s,5,1054,NaN,knife,boat,15,6174_lp_dnn_15_boat_10_n03344393_8140.png
cornet-s,5,1055,NaN,knife,boat,15,6175_lp_dnn_15_boat_10_n03344393_8597.png
cornet-s,5,1056,NaN,knife,boat,15,6176_lp_dnn_15_boat_10_n04273569_22061.png
cornet-s,5,1057,NaN,knife,boat,15,6177_lp_dnn_15_boat_10_n04612504_11079.png
cornet-s,5,1058,NaN,knife,boat,15,6178_lp_dnn_15_boat_10_n03662601_29691.png
cornet-s,5,1059,NaN,knife,boat,15,6179_lp_dnn_15_boat_10_n02951358_14846.png
cornet-s,5,1060,NaN,knife,boat,15,6180_lp_dnn_15_boat_10_n02951358_13845.png
cornet-s,5,1061,NaN,knife,cat,15,6181_lp_dnn_15_cat_10_n02123045_12755.png
cornet-s,5,1062,NaN,knife,cat,15,6182_lp_dnn_15_cat_10_n02123045_13202.png
cornet-s,5,1063,NaN,keyboard,cat,15,6183_lp_dnn_15_cat_10_n02123045_11035.png
cornet-s,5,1064,NaN,knife,cat,15,6184_lp_dnn_15_cat_10_n02123045_9813.png
cornet-s,5,1065,NaN,knife,cat,15,6185_lp_dnn_15_cat_10_n02123597_5360.png
cornet-s,5,1066,NaN,knife,cat,15,6186_lp_dnn_15_cat_10_n02123394_2827.png
cornet-s,5,1067,NaN,knife,cat,15,6187_lp_dnn_15_cat_10_n02123159_2804.png
cornet-s,5,1068,NaN,knife,cat,15,6188_lp_dnn_15_cat_10_n02123159_649.png
cornet-s,5,1069,NaN,knife,cat,15,6189_lp_dnn_15_cat_10_n02124075_7332.png
cornet-s,5,1070,NaN,knife,cat,15,6190_lp_dnn_15_cat_10_n02123597_12554.png
cornet-s,5,1071,NaN,knife,bottle,15,6191_lp_dnn_15_bottle_10_n03983396_5913.png
cornet-s,5,1072,NaN,knife,bottle,15,6192_lp_dnn_15_bottle_10_n04557648_757.png
cornet-s,5,1073,NaN,dog,bottle,15,6193_lp_dnn_15_bottle_10_n04591713_1594.png
cornet-s,5,1074,NaN,knife,bottle,15,6194_lp_dnn_15_bottle_10_n02823428_6418.png
cornet-s,5,1075,NaN,bear,bottle,15,6195_lp_dnn_15_bottle_10_n02823428_14205.png
cornet-s,5,1076,NaN,knife,bottle,15,6196_lp_dnn_15_bottle_10_n03937543_1746.png
cornet-s,5,1077,NaN,knife,bottle,15,6197_lp_dnn_15_bottle_10_n04591713_5609.png
cornet-s,5,1078,NaN,knife,bottle,15,6198_lp_dnn_15_bottle_10_n03937543_5677.png
cornet-s,5,1079,NaN,knife,bottle,15,6199_lp_dnn_15_bottle_10_n04591713_4078.png
cornet-s,5,1080,NaN,knife,bottle,15,6200_lp_dnn_15_bottle_10_n02823428_2918.png
cornet-s,5,1081,NaN,knife,truck,15,6201_lp_dnn_15_truck_10_n03796401_3900.png
cornet-s,5,1082,NaN,knife,truck,15,6202_lp_dnn_15_truck_10_n04467665_6830.png
cornet-s,5,1083,NaN,knife,truck,15,6203_lp_dnn_15_truck_10_n03796401_7527.png
cornet-s,5,1084,NaN,knife,truck,15,6204_lp_dnn_15_truck_10_n03796401_7519.png
cornet-s,5,1085,NaN,knife,truck,15,6205_lp_dnn_15_truck_10_n03417042_3389.png
cornet-s,5,1086,NaN,knife,truck,15,6206_lp_dnn_15_truck_10_n03796401_23547.png
cornet-s,5,1087,NaN,knife,truck,15,6207_lp_dnn_15_truck_10_n04467665_53416.png
cornet-s,5,1088,NaN,knife,truck,15,6208_lp_dnn_15_truck_10_n03796401_10576.png
cornet-s,5,1089,NaN,knife,truck,15,6209_lp_dnn_15_truck_10_n04467665_10529.png
cornet-s,5,1090,NaN,knife,truck,15,6210_lp_dnn_15_truck_10_n04467665_9266.png
cornet-s,5,1091,NaN,knife,car,15,6211_lp_dnn_15_car_10_n04285008_11957.png
cornet-s,5,1092,NaN,knife,car,15,6212_lp_dnn_15_car_10_n02814533_63116.png
cornet-s,5,1093,NaN,knife,car,15,6213_lp_dnn_15_car_10_n04285008_9963.png
cornet-s,5,1094,NaN,knife,car,15,6214_lp_dnn_15_car_10_n04285008_6527.png
cornet-s,5,1095,NaN,knife,car,15,6215_lp_dnn_15_car_10_n04285008_5247.png
cornet-s,5,1096,NaN,knife,car,15,6216_lp_dnn_15_car_10_n03100240_11224.png
cornet-s,5,1097,NaN,knife,car,15,6217_lp_dnn_15_car_10_n02814533_34317.png
cornet-s,5,1098,NaN,knife,car,15,6218_lp_dnn_15_car_10_n02814533_9785.png
cornet-s,5,1099,NaN,knife,car,15,6219_lp_dnn_15_car_10_n02814533_38454.png
cornet-s,5,1100,NaN,knife,car,15,6220_lp_dnn_15_car_10_n02814533_4115.png
cornet-s,5,1101,NaN,knife,bird,15,6221_lp_dnn_15_bird_10_n01532829_12842.png
cornet-s,5,1102,NaN,knife,bird,15,6222_lp_dnn_15_bird_10_n01817953_6289.png
cornet-s,5,1103,NaN,knife,bird,15,6223_lp_dnn_15_bird_10_n01622779_1667.png
cornet-s,5,1104,NaN,knife,bird,15,6224_lp_dnn_15_bird_10_n01601694_12449.png
cornet-s,5,1105,NaN,knife,bird,15,6225_lp_dnn_15_bird_10_n01820546_2367.png
cornet-s,5,1106,NaN,knife,bird,15,6226_lp_dnn_15_bird_10_n02028035_6580.png
cornet-s,5,1107,NaN,knife,bird,15,6227_lp_dnn_15_bird_10_n01820546_3799.png
cornet-s,5,1108,NaN,knife,bird,15,6228_lp_dnn_15_bird_10_n01534433_13946.png
cornet-s,5,1109,NaN,knife,bird,15,6229_lp_dnn_15_bird_10_n01860187_946.png
cornet-s,5,1110,NaN,knife,bird,15,6230_lp_dnn_15_bird_10_n01796340_1911.png
cornet-s,5,1111,NaN,knife,dog,15,6231_lp_dnn_15_dog_10_n02093647_5550.png
cornet-s,5,1112,NaN,knife,dog,15,6232_lp_dnn_15_dog_10_n02111277_408.png
cornet-s,5,1113,NaN,bear,dog,15,6233_lp_dnn_15_dog_10_n02096294_1121.png
cornet-s,5,1114,NaN,knife,dog,15,6234_lp_dnn_15_dog_10_n02090721_2220.png
cornet-s,5,1115,NaN,knife,dog,15,6235_lp_dnn_15_dog_10_n02105162_5317.png
cornet-s,5,1116,NaN,knife,dog,15,6236_lp_dnn_15_dog_10_n02097130_10857.png
cornet-s,5,1117,NaN,dog,dog,15,6237_lp_dnn_15_dog_10_n02092002_13565.png
cornet-s,5,1118,NaN,knife,dog,15,6238_lp_dnn_15_dog_10_n02098286_2893.png
cornet-s,5,1119,NaN,knife,dog,15,6239_lp_dnn_15_dog_10_n02102040_150.png
cornet-s,5,1120,NaN,knife,dog,15,6240_lp_dnn_15_dog_10_n02110063_3862.png
cornet-s,5,1121,NaN,knife,knife,40,6241_lp_dnn_40_knife_10_n03041632_19971.png
cornet-s,5,1122,NaN,knife,knife,40,6242_lp_dnn_40_knife_10_n03041632_34505.png
cornet-s,5,1123,NaN,knife,knife,40,6243_lp_dnn_40_knife_10_n03041632_7064.png
cornet-s,5,1124,NaN,knife,knife,40,6244_lp_dnn_40_knife_10_n03041632_11816.png
cornet-s,5,1125,NaN,knife,knife,40,6245_lp_dnn_40_knife_10_n03041632_29886.png
cornet-s,5,1126,NaN,knife,knife,40,6246_lp_dnn_40_knife_10_n03041632_7090.png
cornet-s,5,1127,NaN,knife,knife,40,6247_lp_dnn_40_knife_10_n03041632_22570.png
cornet-s,5,1128,NaN,knife,knife,40,6248_lp_dnn_40_knife_10_n03041632_18532.png
cornet-s,5,1129,NaN,knife,knife,40,6249_lp_dnn_40_knife_10_n03041632_51617.png
cornet-s,5,1130,NaN,knife,knife,40,6250_lp_dnn_40_knife_10_n03041632_54732.png
cornet-s,5,1131,NaN,knife,keyboard,40,6251_lp_dnn_40_keyboard_10_n04505470_1229.png
cornet-s,5,1132,NaN,knife,keyboard,40,6252_lp_dnn_40_keyboard_10_n04505470_1724.png
cornet-s,5,1133,NaN,knife,keyboard,40,6253_lp_dnn_40_keyboard_10_n03085013_30544.png
cornet-s,5,1134,NaN,knife,keyboard,40,6254_lp_dnn_40_keyboard_10_n03085013_24633.png
cornet-s,5,1135,NaN,knife,keyboard,40,6255_lp_dnn_40_keyboard_10_n04505470_8575.png
cornet-s,5,1136,NaN,knife,keyboard,40,6256_lp_dnn_40_keyboard_10_n03085013_24336.png
cornet-s,5,1137,NaN,knife,keyboard,40,6257_lp_dnn_40_keyboard_10_n04505470_4490.png
cornet-s,5,1138,NaN,knife,keyboard,40,6258_lp_dnn_40_keyboard_10_n04505470_3193.png
cornet-s,5,1139,NaN,knife,keyboard,40,6259_lp_dnn_40_keyboard_10_n03085013_20999.png
cornet-s,5,1140,NaN,knife,keyboard,40,6260_lp_dnn_40_keyboard_10_n03085013_20379.png
cornet-s,5,1141,NaN,knife,elephant,40,6261_lp_dnn_40_elephant_10_n02504458_3533.png
cornet-s,5,1142,NaN,knife,elephant,40,6262_lp_dnn_40_elephant_10_n02504013_6549.png
cornet-s,5,1143,NaN,knife,elephant,40,6263_lp_dnn_40_elephant_10_n02504013_7309.png
cornet-s,5,1144,NaN,knife,elephant,40,6264_lp_dnn_40_elephant_10_n02504458_10661.png
cornet-s,5,1145,NaN,knife,elephant,40,6265_lp_dnn_40_elephant_10_n02504013_6615.png
cornet-s,5,1146,NaN,knife,elephant,40,6266_lp_dnn_40_elephant_10_n02504013_9476.png
cornet-s,5,1147,NaN,knife,elephant,40,6267_lp_dnn_40_elephant_10_n02504458_2324.png
cornet-s,5,1148,NaN,knife,elephant,40,6268_lp_dnn_40_elephant_10_n02504013_7217.png
cornet-s,5,1149,NaN,knife,elephant,40,6269_lp_dnn_40_elephant_10_n02504013_3169.png
cornet-s,5,1150,NaN,knife,elephant,40,6270_lp_dnn_40_elephant_10_n02504458_98.png
cornet-s,5,1151,NaN,knife,bicycle,40,6271_lp_dnn_40_bicycle_10_n03792782_11404.png
cornet-s,5,1152,NaN,knife,bicycle,40,6272_lp_dnn_40_bicycle_10_n02835271_5956.png
cornet-s,5,1153,NaN,knife,bicycle,40,6273_lp_dnn_40_bicycle_10_n02835271_19853.png
cornet-s,5,1154,NaN,knife,bicycle,40,6274_lp_dnn_40_bicycle_10_n03792782_4522.png
cornet-s,5,1155,NaN,knife,bicycle,40,6275_lp_dnn_40_bicycle_10_n02835271_1505.png
cornet-s,5,1156,NaN,knife,bicycle,40,6276_lp_dnn_40_bicycle_10_n02835271_1141.png
cornet-s,5,1157,NaN,knife,bicycle,40,6277_lp_dnn_40_bicycle_10_n02835271_4964.png
cornet-s,5,1158,NaN,knife,bicycle,40,6278_lp_dnn_40_bicycle_10_n03792782_24763.png
cornet-s,5,1159,NaN,knife,bicycle,40,6279_lp_dnn_40_bicycle_10_n03792782_3467.png
cornet-s,5,1160,NaN,knife,bicycle,40,6280_lp_dnn_40_bicycle_10_n03792782_9991.png
cornet-s,5,1161,NaN,knife,airplane,40,6281_lp_dnn_40_airplane_10_n02690373_19646.png
cornet-s,5,1162,NaN,knife,airplane,40,6282_lp_dnn_40_airplane_10_n02690373_3993.png
cornet-s,5,1163,NaN,knife,airplane,40,6283_lp_dnn_40_airplane_10_n02690373_4586.png
cornet-s,5,1164,NaN,knife,airplane,40,6284_lp_dnn_40_airplane_10_n02690373_3912.png
cornet-s,5,1165,NaN,knife,airplane,40,6285_lp_dnn_40_airplane_10_n02690373_18468.png
cornet-s,5,1166,NaN,knife,airplane,40,6286_lp_dnn_40_airplane_10_n02690373_1171.png
cornet-s,5,1167,NaN,knife,airplane,40,6287_lp_dnn_40_airplane_10_n02690373_11799.png
cornet-s,5,1168,NaN,knife,airplane,40,6288_lp_dnn_40_airplane_10_n02690373_6468.png
cornet-s,5,1169,NaN,knife,airplane,40,6289_lp_dnn_40_airplane_10_n02690373_8765.png
cornet-s,5,1170,NaN,knife,airplane,40,6290_lp_dnn_40_airplane_10_n02690373_2092.png
cornet-s,5,1171,NaN,knife,clock,40,6291_lp_dnn_40_clock_10_n04548280_1304.png
cornet-s,5,1172,NaN,knife,clock,40,6292_lp_dnn_40_clock_10_n03196217_3063.png
cornet-s,5,1173,NaN,knife,clock,40,6293_lp_dnn_40_clock_10_n03196217_5258.png
cornet-s,5,1174,NaN,knife,clock,40,6294_lp_dnn_40_clock_10_n04548280_3412.png
cornet-s,5,1175,NaN,knife,clock,40,6295_lp_dnn_40_clock_10_n03196217_1603.png
cornet-s,5,1176,NaN,knife,clock,40,6296_lp_dnn_40_clock_10_n03196217_8509.png
cornet-s,5,1177,NaN,knife,clock,40,6297_lp_dnn_40_clock_10_n04548280_3208.png
cornet-s,5,1178,NaN,knife,clock,40,6298_lp_dnn_40_clock_10_n04548280_4561.png
cornet-s,5,1179,NaN,knife,clock,40,6299_lp_dnn_40_clock_10_n02708093_7475.png
cornet-s,5,1180,NaN,knife,clock,40,6300_lp_dnn_40_clock_10_n03196217_8638.png
cornet-s,5,1181,NaN,knife,oven,40,6301_lp_dnn_40_oven_10_n04111531_4585.png
cornet-s,5,1182,NaN,knife,oven,40,6302_lp_dnn_40_oven_10_n04111531_1847.png
cornet-s,5,1183,NaN,knife,oven,40,6303_lp_dnn_40_oven_10_n04111531_5519.png
cornet-s,5,1184,NaN,knife,oven,40,6304_lp_dnn_40_oven_10_n04111531_5906.png
cornet-s,5,1185,NaN,knife,oven,40,6305_lp_dnn_40_oven_10_n04111531_4467.png
cornet-s,5,1186,NaN,knife,oven,40,6306_lp_dnn_40_oven_10_n04111531_4879.png
cornet-s,5,1187,NaN,knife,oven,40,6307_lp_dnn_40_oven_10_n04111531_2199.png
cornet-s,5,1188,NaN,knife,oven,40,6308_lp_dnn_40_oven_10_n04111531_18592.png
cornet-s,5,1189,NaN,knife,oven,40,6309_lp_dnn_40_oven_10_n04111531_21980.png
cornet-s,5,1190,NaN,knife,oven,40,6310_lp_dnn_40_oven_10_n04111531_4749.png
cornet-s,5,1191,NaN,knife,chair,40,6311_lp_dnn_40_chair_10_n04429376_52822.png
cornet-s,5,1192,NaN,knife,chair,40,6312_lp_dnn_40_chair_10_n02791124_1935.png
cornet-s,5,1193,NaN,knife,chair,40,6313_lp_dnn_40_chair_10_n03376595_1391.png
cornet-s,5,1194,NaN,knife,chair,40,6314_lp_dnn_40_chair_10_n04099969_20797.png
cornet-s,5,1195,NaN,knife,chair,40,6315_lp_dnn_40_chair_10_n03376595_2729.png
cornet-s,5,1196,NaN,knife,chair,40,6316_lp_dnn_40_chair_10_n04429376_4167.png
cornet-s,5,1197,NaN,knife,chair,40,6317_lp_dnn_40_chair_10_n03376595_7479.png
cornet-s,5,1198,NaN,knife,chair,40,6318_lp_dnn_40_chair_10_n04099969_1717.png
cornet-s,5,1199,NaN,knife,chair,40,6319_lp_dnn_40_chair_10_n04099969_17069.png
cornet-s,5,1200,NaN,knife,chair,40,6320_lp_dnn_40_chair_10_n04099969_9217.png
cornet-s,5,1201,NaN,knife,bear,40,6321_lp_dnn_40_bear_10_n02132136_29146.png
cornet-s,5,1202,NaN,knife,bear,40,6322_lp_dnn_40_bear_10_n02134084_617.png
cornet-s,5,1203,NaN,knife,bear,40,6323_lp_dnn_40_bear_10_n02132136_19755.png
cornet-s,5,1204,NaN,knife,bear,40,6324_lp_dnn_40_bear_10_n02134084_4557.png
cornet-s,5,1205,NaN,knife,bear,40,6325_lp_dnn_40_bear_10_n02134418_2427.png
cornet-s,5,1206,NaN,knife,bear,40,6326_lp_dnn_40_bear_10_n02133161_195.png
cornet-s,5,1207,NaN,knife,bear,40,6327_lp_dnn_40_bear_10_n02132136_1624.png
cornet-s,5,1208,NaN,knife,bear,40,6328_lp_dnn_40_bear_10_n02133161_644.png
cornet-s,5,1209,NaN,knife,bear,40,6329_lp_dnn_40_bear_10_n02134418_13814.png
cornet-s,5,1210,NaN,knife,bear,40,6330_lp_dnn_40_bear_10_n02132136_8017.png
cornet-s,5,1211,NaN,knife,boat,40,6331_lp_dnn_40_boat_10_n03662601_28792.png
cornet-s,5,1212,NaN,knife,boat,40,6332_lp_dnn_40_boat_10_n03662601_9178.png
cornet-s,5,1213,NaN,knife,boat,40,6333_lp_dnn_40_boat_10_n03344393_6103.png
cornet-s,5,1214,NaN,knife,boat,40,6334_lp_dnn_40_boat_10_n03344393_10343.png
cornet-s,5,1215,NaN,knife,boat,40,6335_lp_dnn_40_boat_10_n04273569_4121.png
cornet-s,5,1216,NaN,knife,boat,40,6336_lp_dnn_40_boat_10_n03662601_13326.png
cornet-s,5,1217,NaN,knife,boat,40,6337_lp_dnn_40_boat_10_n04612504_6991.png
cornet-s,5,1218,NaN,knife,boat,40,6338_lp_dnn_40_boat_10_n03662601_17617.png
cornet-s,5,1219,NaN,knife,boat,40,6339_lp_dnn_40_boat_10_n04612504_12456.png
cornet-s,5,1220,NaN,knife,boat,40,6340_lp_dnn_40_boat_10_n04612504_27132.png
cornet-s,5,1221,NaN,knife,cat,40,6341_lp_dnn_40_cat_10_n02124075_9352.png
cornet-s,5,1222,NaN,knife,cat,40,6342_lp_dnn_40_cat_10_n02123045_5200.png
cornet-s,5,1223,NaN,knife,cat,40,6343_lp_dnn_40_cat_10_n02123045_4272.png
cornet-s,5,1224,NaN,knife,cat,40,6344_lp_dnn_40_cat_10_n02123159_4590.png
cornet-s,5,1225,NaN,knife,cat,40,6345_lp_dnn_40_cat_10_n02123159_7996.png
cornet-s,5,1226,NaN,knife,cat,40,6346_lp_dnn_40_cat_10_n02123394_5402.png
cornet-s,5,1227,NaN,knife,cat,40,6347_lp_dnn_40_cat_10_n02123394_7871.png
cornet-s,5,1228,NaN,knife,cat,40,6348_lp_dnn_40_cat_10_n02123159_1619.png
cornet-s,5,1229,NaN,knife,cat,40,6349_lp_dnn_40_cat_10_n02124075_9894.png
cornet-s,5,1230,NaN,knife,cat,40,6350_lp_dnn_40_cat_10_n02123394_3110.png
cornet-s,5,1231,NaN,knife,bottle,40,6351_lp_dnn_40_bottle_10_n04591713_5473.png
cornet-s,5,1232,NaN,knife,bottle,40,6352_lp_dnn_40_bottle_10_n04557648_11941.png
cornet-s,5,1233,NaN,knife,bottle,40,6353_lp_dnn_40_bottle_10_n04560804_9692.png
cornet-s,5,1234,NaN,knife,bottle,40,6354_lp_dnn_40_bottle_10_n04557648_8444.png
cornet-s,5,1235,NaN,knife,bottle,40,6355_lp_dnn_40_bottle_10_n04557648_10510.png
cornet-s,5,1236,NaN,knife,bottle,40,6356_lp_dnn_40_bottle_10_n04557648_3320.png
cornet-s,5,1237,NaN,knife,bottle,40,6357_lp_dnn_40_bottle_10_n04579145_3267.png
cornet-s,5,1238,NaN,knife,bottle,40,6358_lp_dnn_40_bottle_10_n04591713_14205.png
cornet-s,5,1239,NaN,knife,bottle,40,6359_lp_dnn_40_bottle_10_n03937543_282.png
cornet-s,5,1240,NaN,knife,bottle,40,6360_lp_dnn_40_bottle_10_n04591713_18281.png
cornet-s,5,1241,NaN,knife,truck,40,6361_lp_dnn_40_truck_10_n03796401_5043.png
cornet-s,5,1242,NaN,knife,truck,40,6362_lp_dnn_40_truck_10_n03417042_5852.png
cornet-s,5,1243,NaN,knife,truck,40,6363_lp_dnn_40_truck_10_n04467665_54791.png
cornet-s,5,1244,NaN,knife,truck,40,6364_lp_dnn_40_truck_10_n04467665_37261.png
cornet-s,5,1245,NaN,knife,truck,40,6365_lp_dnn_40_truck_10_n03417042_21727.png
cornet-s,5,1246,NaN,knife,truck,40,6366_lp_dnn_40_truck_10_n03417042_4613.png
cornet-s,5,1247,NaN,knife,truck,40,6367_lp_dnn_40_truck_10_n04467665_1408.png
cornet-s,5,1248,NaN,knife,truck,40,6368_lp_dnn_40_truck_10_n04467665_44771.png
cornet-s,5,1249,NaN,knife,truck,40,6369_lp_dnn_40_truck_10_n03417042_29267.png
cornet-s,5,1250,NaN,knife,truck,40,6370_lp_dnn_40_truck_10_n03796401_18333.png
cornet-s,5,1251,NaN,knife,car,40,6371_lp_dnn_40_car_10_n02814533_59447.png
cornet-s,5,1252,NaN,knife,car,40,6372_lp_dnn_40_car_10_n04285008_10825.png
cornet-s,5,1253,NaN,knife,car,40,6373_lp_dnn_40_car_10_n03100240_15778.png
cornet-s,5,1254,NaN,knife,car,40,6374_lp_dnn_40_car_10_n02814533_54543.png
cornet-s,5,1255,NaN,knife,car,40,6375_lp_dnn_40_car_10_n03100240_13359.png
cornet-s,5,1256,NaN,knife,car,40,6376_lp_dnn_40_car_10_n03100240_8401.png
cornet-s,5,1257,NaN,knife,car,40,6377_lp_dnn_40_car_10_n04285008_88.png
cornet-s,5,1258,NaN,knife,car,40,6378_lp_dnn_40_car_10_n02814533_77080.png
cornet-s,5,1259,NaN,knife,car,40,6379_lp_dnn_40_car_10_n04285008_3882.png
cornet-s,5,1260,NaN,knife,car,40,6380_lp_dnn_40_car_10_n04285008_5699.png
cornet-s,5,1261,NaN,knife,bird,40,6381_lp_dnn_40_bird_10_n01601694_5227.png
cornet-s,5,1262,NaN,knife,bird,40,6382_lp_dnn_40_bird_10_n01514859_19812.png
cornet-s,5,1263,NaN,knife,bird,40,6383_lp_dnn_40_bird_10_n01833805_8692.png
cornet-s,5,1264,NaN,knife,bird,40,6384_lp_dnn_40_bird_10_n01860187_34328.png
cornet-s,5,1265,NaN,knife,bird,40,6385_lp_dnn_40_bird_10_n01817953_7424.png
cornet-s,5,1266,NaN,knife,bird,40,6386_lp_dnn_40_bird_10_n01798484_7263.png
cornet-s,5,1267,NaN,knife,bird,40,6387_lp_dnn_40_bird_10_n01818515_10482.png
cornet-s,5,1268,NaN,knife,bird,40,6388_lp_dnn_40_bird_10_n01534433_6069.png
cornet-s,5,1269,NaN,knife,bird,40,6389_lp_dnn_40_bird_10_n01833805_291.png
cornet-s,5,1270,NaN,knife,bird,40,6390_lp_dnn_40_bird_10_n02018207_3808.png
cornet-s,5,1271,NaN,knife,dog,40,6391_lp_dnn_40_dog_10_n02091032_12122.png
cornet-s,5,1272,NaN,knife,dog,40,6392_lp_dnn_40_dog_10_n02113799_6367.png
cornet-s,5,1273,NaN,knife,dog,40,6393_lp_dnn_40_dog_10_n02093256_48295.png
cornet-s,5,1274,NaN,knife,dog,40,6394_lp_dnn_40_dog_10_n02090379_8651.png
cornet-s,5,1275,NaN,knife,dog,40,6395_lp_dnn_40_dog_10_n02104365_10602.png
cornet-s,5,1276,NaN,knife,dog,40,6396_lp_dnn_40_dog_10_n02093991_9013.png
cornet-s,5,1277,NaN,knife,dog,40,6397_lp_dnn_40_dog_10_n02110063_8745.png
cornet-s,5,1278,NaN,knife,dog,40,6398_lp_dnn_40_dog_10_n02093256_718.png
cornet-s,5,1279,NaN,knife,dog,40,6399_lp_dnn_40_dog_10_n02110806_23967.png
cornet-s,5,1280,NaN,knife,dog,40,6400_lp_dnn_40_dog_10_n02088466_11443.png
