subj,session,trial,rt,object_response,category,condition,imagename
cornet-s,7,1,NaN,chair,knife,0.00,7681_nse_dnn_0.00_knife_10_n03041632_24541.JPEG
cornet-s,7,2,NaN,knife,knife,0.00,7682_nse_dnn_0.00_knife_10_n03041632_44269.JPEG
cornet-s,7,3,NaN,chair,knife,0.00,7683_nse_dnn_0.00_knife_10_n03041632_31849.JPEG
cornet-s,7,4,NaN,knife,knife,0.00,7684_nse_dnn_0.00_knife_10_n03041632_16932.JPEG
cornet-s,7,5,NaN,knife,knife,0.00,7685_nse_dnn_0.00_knife_10_n03041632_11969.JPEG
cornet-s,7,6,NaN,chair,knife,0.00,7686_nse_dnn_0.00_knife_10_n03041632_3516.JPEG
cornet-s,7,7,NaN,knife,knife,0.00,7687_nse_dnn_0.00_knife_10_n03041632_48675.JPEG
cornet-s,7,8,NaN,chair,knife,0.00,7688_nse_dnn_0.00_knife_10_n03041632_33488.JPEG
cornet-s,7,9,NaN,chair,knife,0.00,7689_nse_dnn_0.00_knife_10_n03041632_14442.JPEG
cornet-s,7,10,NaN,knife,knife,0.00,7690_nse_dnn_0.00_knife_10_n03041632_21034.JPEG
cornet-s,7,11,NaN,keyboard,keyboard,0.00,7691_nse_dnn_0.00_keyboard_10_n03085013_20379.JPEG
cornet-s,7,12,NaN,clock,keyboard,0.00,7692_nse_dnn_0.00_keyboard_10_n03085013_1812.JPEG
cornet-s,7,13,NaN,keyboard,keyboard,0.00,7693_nse_dnn_0.00_keyboard_10_n04505470_4540.JPEG
cornet-s,7,14,NaN,bottle,keyboard,0.00,7694_nse_dnn_0.00_keyboard_10_n04505470_5062.JPEG
cornet-s,7,15,NaN,keyboard,keyboard,0.00,7695_nse_dnn_0.00_keyboard_10_n04505470_2599.JPEG
cornet-s,7,16,NaN,keyboard,keyboard,0.00,7696_nse_dnn_0.00_keyboard_10_n04505470_470.JPEG
cornet-s,7,17,NaN,chair,keyboard,0.00,7697_nse_dnn_0.00_keyboard_10_n04505470_2250.JPEG
cornet-s,7,18,NaN,keyboard,keyboard,0.00,7698_nse_dnn_0.00_keyboard_10_n04505470_9156.JPEG
cornet-s,7,19,NaN,keyboard,keyboard,0.00,7699_nse_dnn_0.00_keyboard_10_n03085013_22013.JPEG
cornet-s,7,20,NaN,keyboard,keyboard,0.00,7700_nse_dnn_0.00_keyboard_10_n04505470_2623.JPEG
cornet-s,7,21,NaN,elephant,elephant,0.00,7701_nse_dnn_0.00_elephant_10_n02504458_6830.JPEG
cornet-s,7,22,NaN,elephant,elephant,0.00,7702_nse_dnn_0.00_elephant_10_n02504013_3809.JPEG
cornet-s,7,23,NaN,elephant,elephant,0.00,7703_nse_dnn_0.00_elephant_10_n02504458_7827.JPEG
cornet-s,7,24,NaN,elephant,elephant,0.00,7704_nse_dnn_0.00_elephant_10_n02504458_3616.JPEG
cornet-s,7,25,NaN,elephant,elephant,0.00,7705_nse_dnn_0.00_elephant_10_n02504458_1056.JPEG
cornet-s,7,26,NaN,elephant,elephant,0.00,7706_nse_dnn_0.00_elephant_10_n02504458_4579.JPEG
cornet-s,7,27,NaN,elephant,elephant,0.00,7707_nse_dnn_0.00_elephant_10_n02504458_4841.JPEG
cornet-s,7,28,NaN,elephant,elephant,0.00,7708_nse_dnn_0.00_elephant_10_n02504458_6799.JPEG
cornet-s,7,29,NaN,elephant,elephant,0.00,7709_nse_dnn_0.00_elephant_10_n02504013_2369.JPEG
cornet-s,7,30,NaN,truck,elephant,0.00,7710_nse_dnn_0.00_elephant_10_n02504458_4325.JPEG
cornet-s,7,31,NaN,bicycle,bicycle,0.00,7711_nse_dnn_0.00_bicycle_10_n03792782_19774.JPEG
cornet-s,7,32,NaN,bicycle,bicycle,0.00,7712_nse_dnn_0.00_bicycle_10_n03792782_7426.JPEG
cornet-s,7,33,NaN,bicycle,bicycle,0.00,7713_nse_dnn_0.00_bicycle_10_n02835271_8672.JPEG
cornet-s,7,34,NaN,bicycle,bicycle,0.00,7714_nse_dnn_0.00_bicycle_10_n02835271_3565.JPEG
cornet-s,7,35,NaN,bicycle,bicycle,0.00,7715_nse_dnn_0.00_bicycle_10_n02835271_7256.JPEG
cornet-s,7,36,NaN,bicycle,bicycle,0.00,7716_nse_dnn_0.00_bicycle_10_n03792782_14258.JPEG
cornet-s,7,37,NaN,bicycle,bicycle,0.00,7717_nse_dnn_0.00_bicycle_10_n03792782_42780.JPEG
cornet-s,7,38,NaN,chair,bicycle,0.00,7718_nse_dnn_0.00_bicycle_10_n02835271_10556.JPEG
cornet-s,7,39,NaN,bicycle,bicycle,0.00,7719_nse_dnn_0.00_bicycle_10_n02835271_1530.JPEG
cornet-s,7,40,NaN,bicycle,bicycle,0.00,7720_nse_dnn_0.00_bicycle_10_n02835271_4961.JPEG
cornet-s,7,41,NaN,airplane,airplane,0.00,7721_nse_dnn_0.00_airplane_10_n02690373_4175.JPEG
cornet-s,7,42,NaN,airplane,airplane,0.00,7722_nse_dnn_0.00_airplane_10_n02690373_807.JPEG
cornet-s,7,43,NaN,airplane,airplane,0.00,7723_nse_dnn_0.00_airplane_10_n02690373_1296.JPEG
cornet-s,7,44,NaN,airplane,airplane,0.00,7724_nse_dnn_0.00_airplane_10_n02690373_7210.JPEG
cornet-s,7,45,NaN,airplane,airplane,0.00,7725_nse_dnn_0.00_airplane_10_n02690373_3272.JPEG
cornet-s,7,46,NaN,airplane,airplane,0.00,7726_nse_dnn_0.00_airplane_10_n02690373_20326.JPEG
cornet-s,7,47,NaN,airplane,airplane,0.00,7727_nse_dnn_0.00_airplane_10_n02690373_798.JPEG
cornet-s,7,48,NaN,airplane,airplane,0.00,7728_nse_dnn_0.00_airplane_10_n02690373_16986.JPEG
cornet-s,7,49,NaN,airplane,airplane,0.00,7729_nse_dnn_0.00_airplane_10_n02690373_5565.JPEG
cornet-s,7,50,NaN,airplane,airplane,0.00,7730_nse_dnn_0.00_airplane_10_n02690373_4335.JPEG
cornet-s,7,51,NaN,clock,clock,0.00,7731_nse_dnn_0.00_clock_10_n04548280_1305.JPEG
cornet-s,7,52,NaN,clock,clock,0.00,7732_nse_dnn_0.00_clock_10_n04548280_8266.JPEG
cornet-s,7,53,NaN,clock,clock,0.00,7733_nse_dnn_0.00_clock_10_n04548280_7539.JPEG
cornet-s,7,54,NaN,clock,clock,0.00,7734_nse_dnn_0.00_clock_10_n03196217_1510.JPEG
cornet-s,7,55,NaN,clock,clock,0.00,7735_nse_dnn_0.00_clock_10_n04548280_1036.JPEG
cornet-s,7,56,NaN,clock,clock,0.00,7736_nse_dnn_0.00_clock_10_n04548280_7808.JPEG
cornet-s,7,57,NaN,clock,clock,0.00,7737_nse_dnn_0.00_clock_10_n04548280_7303.JPEG
cornet-s,7,58,NaN,clock,clock,0.00,7738_nse_dnn_0.00_clock_10_n02708093_864.JPEG
cornet-s,7,59,NaN,clock,clock,0.00,7739_nse_dnn_0.00_clock_10_n02708093_6430.JPEG
cornet-s,7,60,NaN,clock,clock,0.00,7740_nse_dnn_0.00_clock_10_n04548280_7839.JPEG
cornet-s,7,61,NaN,oven,oven,0.00,7741_nse_dnn_0.00_oven_10_n04111531_8305.JPEG
cornet-s,7,62,NaN,oven,oven,0.00,7742_nse_dnn_0.00_oven_10_n04111531_13560.JPEG
cornet-s,7,63,NaN,oven,oven,0.00,7743_nse_dnn_0.00_oven_10_n04111531_9688.JPEG
cornet-s,7,64,NaN,oven,oven,0.00,7744_nse_dnn_0.00_oven_10_n04111531_4421.JPEG
cornet-s,7,65,NaN,airplane,oven,0.00,7745_nse_dnn_0.00_oven_10_n04111531_4148.JPEG
cornet-s,7,66,NaN,boat,oven,0.00,7746_nse_dnn_0.00_oven_10_n04111531_467.JPEG
cornet-s,7,67,NaN,bicycle,oven,0.00,7747_nse_dnn_0.00_oven_10_n04111531_9881.JPEG
cornet-s,7,68,NaN,oven,oven,0.00,7748_nse_dnn_0.00_oven_10_n04111531_1723.JPEG
cornet-s,7,69,NaN,oven,oven,0.00,7749_nse_dnn_0.00_oven_10_n04111531_1165.JPEG
cornet-s,7,70,NaN,oven,oven,0.00,7750_nse_dnn_0.00_oven_10_n04111531_14934.JPEG
cornet-s,7,71,NaN,chair,chair,0.00,7751_nse_dnn_0.00_chair_10_n04099969_24140.JPEG
cornet-s,7,72,NaN,chair,chair,0.00,7752_nse_dnn_0.00_chair_10_n04099969_1890.JPEG
cornet-s,7,73,NaN,chair,chair,0.00,7753_nse_dnn_0.00_chair_10_n03376595_7709.JPEG
cornet-s,7,74,NaN,chair,chair,0.00,7754_nse_dnn_0.00_chair_10_n04099969_5901.JPEG
cornet-s,7,75,NaN,chair,chair,0.00,7755_nse_dnn_0.00_chair_10_n04099969_6217.JPEG
cornet-s,7,76,NaN,chair,chair,0.00,7756_nse_dnn_0.00_chair_10_n02791124_367.JPEG
cornet-s,7,77,NaN,chair,chair,0.00,7757_nse_dnn_0.00_chair_10_n03376595_635.JPEG
cornet-s,7,78,NaN,chair,chair,0.00,7758_nse_dnn_0.00_chair_10_n04429376_12767.JPEG
cornet-s,7,79,NaN,chair,chair,0.00,7759_nse_dnn_0.00_chair_10_n03376595_6893.JPEG
cornet-s,7,80,NaN,chair,chair,0.00,7760_nse_dnn_0.00_chair_10_n04099969_27929.JPEG
cornet-s,7,81,NaN,bear,bear,0.00,7761_nse_dnn_0.00_bear_10_n02132136_3621.JPEG
cornet-s,7,82,NaN,bear,bear,0.00,7762_nse_dnn_0.00_bear_10_n02133161_13921.JPEG
cornet-s,7,83,NaN,bear,bear,0.00,7763_nse_dnn_0.00_bear_10_n02133161_9013.JPEG
cornet-s,7,84,NaN,bear,bear,0.00,7764_nse_dnn_0.00_bear_10_n02134084_3871.JPEG
cornet-s,7,85,NaN,bear,bear,0.00,7765_nse_dnn_0.00_bear_10_n02133161_4225.JPEG
cornet-s,7,86,NaN,elephant,bear,0.00,7766_nse_dnn_0.00_bear_10_n02132136_8248.JPEG
cornet-s,7,87,NaN,bear,bear,0.00,7767_nse_dnn_0.00_bear_10_n02134418_721.JPEG
cornet-s,7,88,NaN,bear,bear,0.00,7768_nse_dnn_0.00_bear_10_n02134418_9315.JPEG
cornet-s,7,89,NaN,bear,bear,0.00,7769_nse_dnn_0.00_bear_10_n02134084_19701.JPEG
cornet-s,7,90,NaN,bear,bear,0.00,7770_nse_dnn_0.00_bear_10_n02133161_12316.JPEG
cornet-s,7,91,NaN,boat,boat,0.00,7771_nse_dnn_0.00_boat_10_n03344393_8509.JPEG
cornet-s,7,92,NaN,boat,boat,0.00,7772_nse_dnn_0.00_boat_10_n04273569_3493.JPEG
cornet-s,7,93,NaN,boat,boat,0.00,7773_nse_dnn_0.00_boat_10_n03344393_6978.JPEG
cornet-s,7,94,NaN,boat,boat,0.00,7774_nse_dnn_0.00_boat_10_n02951358_15634.JPEG
cornet-s,7,95,NaN,boat,boat,0.00,7775_nse_dnn_0.00_boat_10_n03662601_26681.JPEG
cornet-s,7,96,NaN,boat,boat,0.00,7776_nse_dnn_0.00_boat_10_n03344393_2217.JPEG
cornet-s,7,97,NaN,boat,boat,0.00,7777_nse_dnn_0.00_boat_10_n03662601_6664.JPEG
cornet-s,7,98,NaN,boat,boat,0.00,7778_nse_dnn_0.00_boat_10_n04612504_7851.JPEG
cornet-s,7,99,NaN,boat,boat,0.00,7779_nse_dnn_0.00_boat_10_n02951358_33269.JPEG
cornet-s,7,100,NaN,car,boat,0.00,7780_nse_dnn_0.00_boat_10_n02951358_11248.JPEG
cornet-s,7,101,NaN,cat,cat,0.00,7781_nse_dnn_0.00_cat_10_n02124075_20317.JPEG
cornet-s,7,102,NaN,cat,cat,0.00,7782_nse_dnn_0.00_cat_10_n02124075_7876.JPEG
cornet-s,7,103,NaN,cat,cat,0.00,7783_nse_dnn_0.00_cat_10_n02123159_2742.JPEG
cornet-s,7,104,NaN,cat,cat,0.00,7784_nse_dnn_0.00_cat_10_n02123597_3828.JPEG
cornet-s,7,105,NaN,bear,cat,0.00,7785_nse_dnn_0.00_cat_10_n02123159_2167.JPEG
cornet-s,7,106,NaN,cat,cat,0.00,7786_nse_dnn_0.00_cat_10_n02123394_5568.JPEG
cornet-s,7,107,NaN,cat,cat,0.00,7787_nse_dnn_0.00_cat_10_n02123045_22063.JPEG
cornet-s,7,108,NaN,bottle,cat,0.00,7788_nse_dnn_0.00_cat_10_n02123045_5387.JPEG
cornet-s,7,109,NaN,cat,cat,0.00,7789_nse_dnn_0.00_cat_10_n02123045_569.JPEG
cornet-s,7,110,NaN,cat,cat,0.00,7790_nse_dnn_0.00_cat_10_n02125311_40759.JPEG
cornet-s,7,111,NaN,bottle,bottle,0.00,7791_nse_dnn_0.00_bottle_10_n04560804_657.JPEG
cornet-s,7,112,NaN,bottle,bottle,0.00,7792_nse_dnn_0.00_bottle_10_n04557648_1026.JPEG
cornet-s,7,113,NaN,bottle,bottle,0.00,7793_nse_dnn_0.00_bottle_10_n04591713_710.JPEG
cornet-s,7,114,NaN,bottle,bottle,0.00,7794_nse_dnn_0.00_bottle_10_n04557648_8700.JPEG
cornet-s,7,115,NaN,bottle,bottle,0.00,7795_nse_dnn_0.00_bottle_10_n04560804_2651.JPEG
cornet-s,7,116,NaN,bottle,bottle,0.00,7796_nse_dnn_0.00_bottle_10_n04591713_335.JPEG
cornet-s,7,117,NaN,bottle,bottle,0.00,7797_nse_dnn_0.00_bottle_10_n03983396_4701.JPEG
cornet-s,7,118,NaN,bottle,bottle,0.00,7798_nse_dnn_0.00_bottle_10_n03937543_5656.JPEG
cornet-s,7,119,NaN,bottle,bottle,0.00,7799_nse_dnn_0.00_bottle_10_n04591713_5922.JPEG
cornet-s,7,120,NaN,bottle,bottle,0.00,7800_nse_dnn_0.00_bottle_10_n03937543_2069.JPEG
cornet-s,7,121,NaN,truck,truck,0.00,7801_nse_dnn_0.00_truck_10_n04467665_5874.JPEG
cornet-s,7,122,NaN,truck,truck,0.00,7802_nse_dnn_0.00_truck_10_n04467665_50746.JPEG
cornet-s,7,123,NaN,truck,truck,0.00,7803_nse_dnn_0.00_truck_10_n03417042_9377.JPEG
cornet-s,7,124,NaN,truck,truck,0.00,7804_nse_dnn_0.00_truck_10_n04467665_34811.JPEG
cornet-s,7,125,NaN,truck,truck,0.00,7805_nse_dnn_0.00_truck_10_n04467665_40877.JPEG
cornet-s,7,126,NaN,truck,truck,0.00,7806_nse_dnn_0.00_truck_10_n03796401_4006.JPEG
cornet-s,7,127,NaN,truck,truck,0.00,7807_nse_dnn_0.00_truck_10_n03417042_10243.JPEG
cornet-s,7,128,NaN,truck,truck,0.00,7808_nse_dnn_0.00_truck_10_n03796401_7922.JPEG
cornet-s,7,129,NaN,truck,truck,0.00,7809_nse_dnn_0.00_truck_10_n04467665_34253.JPEG
cornet-s,7,130,NaN,truck,truck,0.00,7810_nse_dnn_0.00_truck_10_n03796401_6923.JPEG
cornet-s,7,131,NaN,car,car,0.00,7811_nse_dnn_0.00_car_10_n02814533_26936.JPEG
cornet-s,7,132,NaN,car,car,0.00,7812_nse_dnn_0.00_car_10_n04285008_7770.JPEG
cornet-s,7,133,NaN,car,car,0.00,7813_nse_dnn_0.00_car_10_n04285008_793.JPEG
cornet-s,7,134,NaN,car,car,0.00,7814_nse_dnn_0.00_car_10_n02814533_49602.JPEG
cornet-s,7,135,NaN,car,car,0.00,7815_nse_dnn_0.00_car_10_n04285008_550.JPEG
cornet-s,7,136,NaN,car,car,0.00,7816_nse_dnn_0.00_car_10_n04285008_628.JPEG
cornet-s,7,137,NaN,car,car,0.00,7817_nse_dnn_0.00_car_10_n04285008_5371.JPEG
cornet-s,7,138,NaN,truck,car,0.00,7818_nse_dnn_0.00_car_10_n04285008_2314.JPEG
cornet-s,7,139,NaN,car,car,0.00,7819_nse_dnn_0.00_car_10_n02814533_1120.JPEG
cornet-s,7,140,NaN,car,car,0.00,7820_nse_dnn_0.00_car_10_n03100240_606.JPEG
cornet-s,7,141,NaN,bird,bird,0.00,7821_nse_dnn_0.00_bird_10_n01537544_1737.JPEG
cornet-s,7,142,NaN,bird,bird,0.00,7822_nse_dnn_0.00_bird_10_n01855032_2601.JPEG
cornet-s,7,143,NaN,bird,bird,0.00,7823_nse_dnn_0.00_bird_10_n01855032_6111.JPEG
cornet-s,7,144,NaN,bird,bird,0.00,7824_nse_dnn_0.00_bird_10_n01592084_7662.JPEG
cornet-s,7,145,NaN,bird,bird,0.00,7825_nse_dnn_0.00_bird_10_n01622779_2420.JPEG
cornet-s,7,146,NaN,bottle,bird,0.00,7826_nse_dnn_0.00_bird_10_n02007558_2229.JPEG
cornet-s,7,147,NaN,bird,bird,0.00,7827_nse_dnn_0.00_bird_10_n01560419_2494.JPEG
cornet-s,7,148,NaN,bird,bird,0.00,7828_nse_dnn_0.00_bird_10_n02011460_1186.JPEG
cornet-s,7,149,NaN,bird,bird,0.00,7829_nse_dnn_0.00_bird_10_n02002556_22393.JPEG
cornet-s,7,150,NaN,bird,bird,0.00,7830_nse_dnn_0.00_bird_10_n02002556_9557.JPEG
cornet-s,7,151,NaN,dog,dog,0.00,7831_nse_dnn_0.00_dog_10_n02109047_11760.JPEG
cornet-s,7,152,NaN,dog,dog,0.00,7832_nse_dnn_0.00_dog_10_n02107312_1141.JPEG
cornet-s,7,153,NaN,dog,dog,0.00,7833_nse_dnn_0.00_dog_10_n02090379_9598.JPEG
cornet-s,7,154,NaN,chair,dog,0.00,7834_nse_dnn_0.00_dog_10_n02102040_4435.JPEG
cornet-s,7,155,NaN,dog,dog,0.00,7835_nse_dnn_0.00_dog_10_n02113799_182.JPEG
cornet-s,7,156,NaN,dog,dog,0.00,7836_nse_dnn_0.00_dog_10_n02110958_7368.JPEG
cornet-s,7,157,NaN,dog,dog,0.00,7837_nse_dnn_0.00_dog_10_n02097298_4000.JPEG
cornet-s,7,158,NaN,dog,dog,0.00,7838_nse_dnn_0.00_dog_10_n02102318_9262.JPEG
cornet-s,7,159,NaN,dog,dog,0.00,7839_nse_dnn_0.00_dog_10_n02106166_9283.JPEG
cornet-s,7,160,NaN,cat,dog,0.00,7840_nse_dnn_0.00_dog_10_n02097047_4645.JPEG
cornet-s,7,161,NaN,clock,knife,0.03,7841_nse_dnn_0.03_knife_10_n03041632_12537.JPEG
cornet-s,7,162,NaN,knife,knife,0.03,7842_nse_dnn_0.03_knife_10_n03041632_35365.JPEG
cornet-s,7,163,NaN,keyboard,knife,0.03,7843_nse_dnn_0.03_knife_10_n03041632_25331.JPEG
cornet-s,7,164,NaN,knife,knife,0.03,7844_nse_dnn_0.03_knife_10_n03041632_13424.JPEG
cornet-s,7,165,NaN,knife,knife,0.03,7845_nse_dnn_0.03_knife_10_n03041632_26989.JPEG
cornet-s,7,166,NaN,bicycle,knife,0.03,7846_nse_dnn_0.03_knife_10_n03041632_9256.JPEG
cornet-s,7,167,NaN,chair,knife,0.03,7847_nse_dnn_0.03_knife_10_n03041632_101673.JPEG
cornet-s,7,168,NaN,clock,knife,0.03,7848_nse_dnn_0.03_knife_10_n03041632_24228.JPEG
cornet-s,7,169,NaN,knife,knife,0.03,7849_nse_dnn_0.03_knife_10_n03041632_14916.JPEG
cornet-s,7,170,NaN,knife,knife,0.03,7850_nse_dnn_0.03_knife_10_n03041632_31367.JPEG
cornet-s,7,171,NaN,chair,keyboard,0.03,7851_nse_dnn_0.03_keyboard_10_n03085013_22386.JPEG
cornet-s,7,172,NaN,chair,keyboard,0.03,7852_nse_dnn_0.03_keyboard_10_n03085013_4298.JPEG
cornet-s,7,173,NaN,keyboard,keyboard,0.03,7853_nse_dnn_0.03_keyboard_10_n04505470_286.JPEG
cornet-s,7,174,NaN,keyboard,keyboard,0.03,7854_nse_dnn_0.03_keyboard_10_n04505470_3110.JPEG
cornet-s,7,175,NaN,keyboard,keyboard,0.03,7855_nse_dnn_0.03_keyboard_10_n03085013_18925.JPEG
cornet-s,7,176,NaN,keyboard,keyboard,0.03,7856_nse_dnn_0.03_keyboard_10_n04505470_1988.JPEG
cornet-s,7,177,NaN,keyboard,keyboard,0.03,7857_nse_dnn_0.03_keyboard_10_n03085013_30943.JPEG
cornet-s,7,178,NaN,keyboard,keyboard,0.03,7858_nse_dnn_0.03_keyboard_10_n03085013_18673.JPEG
cornet-s,7,179,NaN,keyboard,keyboard,0.03,7859_nse_dnn_0.03_keyboard_10_n03085013_24794.JPEG
cornet-s,7,180,NaN,keyboard,keyboard,0.03,7860_nse_dnn_0.03_keyboard_10_n03085013_18903.JPEG
cornet-s,7,181,NaN,elephant,elephant,0.03,7861_nse_dnn_0.03_elephant_10_n02504458_5083.JPEG
cornet-s,7,182,NaN,elephant,elephant,0.03,7862_nse_dnn_0.03_elephant_10_n02504013_5404.JPEG
cornet-s,7,183,NaN,elephant,elephant,0.03,7863_nse_dnn_0.03_elephant_10_n02504458_4336.JPEG
cornet-s,7,184,NaN,elephant,elephant,0.03,7864_nse_dnn_0.03_elephant_10_n02504013_2264.JPEG
cornet-s,7,185,NaN,elephant,elephant,0.03,7865_nse_dnn_0.03_elephant_10_n02504013_4590.JPEG
cornet-s,7,186,NaN,elephant,elephant,0.03,7866_nse_dnn_0.03_elephant_10_n02504013_1574.JPEG
cornet-s,7,187,NaN,elephant,elephant,0.03,7867_nse_dnn_0.03_elephant_10_n02504013_11156.JPEG
cornet-s,7,188,NaN,elephant,elephant,0.03,7868_nse_dnn_0.03_elephant_10_n02504013_1454.JPEG
cornet-s,7,189,NaN,truck,elephant,0.03,7869_nse_dnn_0.03_elephant_10_n02504013_1386.JPEG
cornet-s,7,190,NaN,elephant,elephant,0.03,7870_nse_dnn_0.03_elephant_10_n02504458_12374.JPEG
cornet-s,7,191,NaN,chair,bicycle,0.03,7871_nse_dnn_0.03_bicycle_10_n03792782_3385.JPEG
cornet-s,7,192,NaN,bicycle,bicycle,0.03,7872_nse_dnn_0.03_bicycle_10_n03792782_818.JPEG
cornet-s,7,193,NaN,bicycle,bicycle,0.03,7873_nse_dnn_0.03_bicycle_10_n02835271_24241.JPEG
cornet-s,7,194,NaN,bicycle,bicycle,0.03,7874_nse_dnn_0.03_bicycle_10_n03792782_19937.JPEG
cornet-s,7,195,NaN,bicycle,bicycle,0.03,7875_nse_dnn_0.03_bicycle_10_n02835271_8059.JPEG
cornet-s,7,196,NaN,bicycle,bicycle,0.03,7876_nse_dnn_0.03_bicycle_10_n02835271_13063.JPEG
cornet-s,7,197,NaN,bicycle,bicycle,0.03,7877_nse_dnn_0.03_bicycle_10_n03792782_4540.JPEG
cornet-s,7,198,NaN,bicycle,bicycle,0.03,7878_nse_dnn_0.03_bicycle_10_n02835271_9364.JPEG
cornet-s,7,199,NaN,bicycle,bicycle,0.03,7879_nse_dnn_0.03_bicycle_10_n02835271_12764.JPEG
cornet-s,7,200,NaN,bicycle,bicycle,0.03,7880_nse_dnn_0.03_bicycle_10_n02835271_14544.JPEG
cornet-s,7,201,NaN,airplane,airplane,0.03,7881_nse_dnn_0.03_airplane_10_n02690373_19074.JPEG
cornet-s,7,202,NaN,airplane,airplane,0.03,7882_nse_dnn_0.03_airplane_10_n02690373_4108.JPEG
cornet-s,7,203,NaN,airplane,airplane,0.03,7883_nse_dnn_0.03_airplane_10_n02690373_17937.JPEG
cornet-s,7,204,NaN,car,airplane,0.03,7884_nse_dnn_0.03_airplane_10_n02690373_1547.JPEG
cornet-s,7,205,NaN,airplane,airplane,0.03,7885_nse_dnn_0.03_airplane_10_n02690373_4506.JPEG
cornet-s,7,206,NaN,airplane,airplane,0.03,7886_nse_dnn_0.03_airplane_10_n02690373_2248.JPEG
cornet-s,7,207,NaN,airplane,airplane,0.03,7887_nse_dnn_0.03_airplane_10_n02690373_2730.JPEG
cornet-s,7,208,NaN,airplane,airplane,0.03,7888_nse_dnn_0.03_airplane_10_n02690373_3492.JPEG
cornet-s,7,209,NaN,airplane,airplane,0.03,7889_nse_dnn_0.03_airplane_10_n02690373_3493.JPEG
cornet-s,7,210,NaN,airplane,airplane,0.03,7890_nse_dnn_0.03_airplane_10_n02690373_19152.JPEG
cornet-s,7,211,NaN,clock,clock,0.03,7891_nse_dnn_0.03_clock_10_n02708093_451.JPEG
cornet-s,7,212,NaN,clock,clock,0.03,7892_nse_dnn_0.03_clock_10_n04548280_7070.JPEG
cornet-s,7,213,NaN,clock,clock,0.03,7893_nse_dnn_0.03_clock_10_n04548280_9752.JPEG
cornet-s,7,214,NaN,clock,clock,0.03,7894_nse_dnn_0.03_clock_10_n04548280_3299.JPEG
cornet-s,7,215,NaN,clock,clock,0.03,7895_nse_dnn_0.03_clock_10_n02708093_1090.JPEG
cornet-s,7,216,NaN,clock,clock,0.03,7896_nse_dnn_0.03_clock_10_n02708093_6813.JPEG
cornet-s,7,217,NaN,clock,clock,0.03,7897_nse_dnn_0.03_clock_10_n02708093_4722.JPEG
cornet-s,7,218,NaN,chair,clock,0.03,7898_nse_dnn_0.03_clock_10_n02708093_2586.JPEG
cornet-s,7,219,NaN,clock,clock,0.03,7899_nse_dnn_0.03_clock_10_n04548280_8672.JPEG
cornet-s,7,220,NaN,chair,clock,0.03,7900_nse_dnn_0.03_clock_10_n03196217_2567.JPEG
cornet-s,7,221,NaN,clock,oven,0.03,7901_nse_dnn_0.03_oven_10_n04111531_9963.JPEG
cornet-s,7,222,NaN,chair,oven,0.03,7902_nse_dnn_0.03_oven_10_n04111531_18223.JPEG
cornet-s,7,223,NaN,oven,oven,0.03,7903_nse_dnn_0.03_oven_10_n04111531_19631.JPEG
cornet-s,7,224,NaN,elephant,oven,0.03,7904_nse_dnn_0.03_oven_10_n04111531_5279.JPEG
cornet-s,7,225,NaN,chair,oven,0.03,7905_nse_dnn_0.03_oven_10_n04111531_19576.JPEG
cornet-s,7,226,NaN,oven,oven,0.03,7906_nse_dnn_0.03_oven_10_n04111531_8963.JPEG
cornet-s,7,227,NaN,chair,oven,0.03,7907_nse_dnn_0.03_oven_10_n04111531_14095.JPEG
cornet-s,7,228,NaN,elephant,oven,0.03,7908_nse_dnn_0.03_oven_10_n04111531_14178.JPEG
cornet-s,7,229,NaN,bottle,oven,0.03,7909_nse_dnn_0.03_oven_10_n04111531_22316.JPEG
cornet-s,7,230,NaN,oven,oven,0.03,7910_nse_dnn_0.03_oven_10_n04111531_8046.JPEG
cornet-s,7,231,NaN,chair,chair,0.03,7911_nse_dnn_0.03_chair_10_n02791124_346.JPEG
cornet-s,7,232,NaN,chair,chair,0.03,7912_nse_dnn_0.03_chair_10_n04429376_16372.JPEG
cornet-s,7,233,NaN,chair,chair,0.03,7913_nse_dnn_0.03_chair_10_n04429376_20188.JPEG
cornet-s,7,234,NaN,chair,chair,0.03,7914_nse_dnn_0.03_chair_10_n04099969_20225.JPEG
cornet-s,7,235,NaN,chair,chair,0.03,7915_nse_dnn_0.03_chair_10_n03376595_15375.JPEG
cornet-s,7,236,NaN,chair,chair,0.03,7916_nse_dnn_0.03_chair_10_n02791124_3993.JPEG
cornet-s,7,237,NaN,chair,chair,0.03,7917_nse_dnn_0.03_chair_10_n03376595_6419.JPEG
cornet-s,7,238,NaN,chair,chair,0.03,7918_nse_dnn_0.03_chair_10_n04099969_2233.JPEG
cornet-s,7,239,NaN,chair,chair,0.03,7919_nse_dnn_0.03_chair_10_n02791124_1865.JPEG
cornet-s,7,240,NaN,chair,chair,0.03,7920_nse_dnn_0.03_chair_10_n04099969_8961.JPEG
cornet-s,7,241,NaN,bear,bear,0.03,7921_nse_dnn_0.03_bear_10_n02134418_5976.JPEG
cornet-s,7,242,NaN,bear,bear,0.03,7922_nse_dnn_0.03_bear_10_n02134418_4465.JPEG
cornet-s,7,243,NaN,boat,bear,0.03,7923_nse_dnn_0.03_bear_10_n02132136_6634.JPEG
cornet-s,7,244,NaN,bear,bear,0.03,7924_nse_dnn_0.03_bear_10_n02134418_143.JPEG
cornet-s,7,245,NaN,bear,bear,0.03,7925_nse_dnn_0.03_bear_10_n02132136_13975.JPEG
cornet-s,7,246,NaN,elephant,bear,0.03,7926_nse_dnn_0.03_bear_10_n02134084_10166.JPEG
cornet-s,7,247,NaN,bear,bear,0.03,7927_nse_dnn_0.03_bear_10_n02134084_7236.JPEG
cornet-s,7,248,NaN,bear,bear,0.03,7928_nse_dnn_0.03_bear_10_n02133161_1243.JPEG
cornet-s,7,249,NaN,bear,bear,0.03,7929_nse_dnn_0.03_bear_10_n02134084_811.JPEG
cornet-s,7,250,NaN,bear,bear,0.03,7930_nse_dnn_0.03_bear_10_n02134084_13339.JPEG
cornet-s,7,251,NaN,airplane,boat,0.03,7931_nse_dnn_0.03_boat_10_n03662601_4612.JPEG
cornet-s,7,252,NaN,boat,boat,0.03,7932_nse_dnn_0.03_boat_10_n04612504_3372.JPEG
cornet-s,7,253,NaN,boat,boat,0.03,7933_nse_dnn_0.03_boat_10_n04612504_14357.JPEG
cornet-s,7,254,NaN,boat,boat,0.03,7934_nse_dnn_0.03_boat_10_n03344393_8749.JPEG
cornet-s,7,255,NaN,boat,boat,0.03,7935_nse_dnn_0.03_boat_10_n03662601_29668.JPEG
cornet-s,7,256,NaN,boat,boat,0.03,7936_nse_dnn_0.03_boat_10_n04273569_17909.JPEG
cornet-s,7,257,NaN,airplane,boat,0.03,7937_nse_dnn_0.03_boat_10_n03662601_31461.JPEG
cornet-s,7,258,NaN,boat,boat,0.03,7938_nse_dnn_0.03_boat_10_n02951358_13411.JPEG
cornet-s,7,259,NaN,boat,boat,0.03,7939_nse_dnn_0.03_boat_10_n04273569_12318.JPEG
cornet-s,7,260,NaN,boat,boat,0.03,7940_nse_dnn_0.03_boat_10_n03344393_8127.JPEG
cornet-s,7,261,NaN,bear,cat,0.03,7941_nse_dnn_0.03_cat_10_n02123045_12185.JPEG
cornet-s,7,262,NaN,bear,cat,0.03,7942_nse_dnn_0.03_cat_10_n02123045_2274.JPEG
cornet-s,7,263,NaN,cat,cat,0.03,7943_nse_dnn_0.03_cat_10_n02125311_25080.JPEG
cornet-s,7,264,NaN,clock,cat,0.03,7944_nse_dnn_0.03_cat_10_n02125311_87.JPEG
cornet-s,7,265,NaN,cat,cat,0.03,7945_nse_dnn_0.03_cat_10_n02123394_1678.JPEG
cornet-s,7,266,NaN,dog,cat,0.03,7946_nse_dnn_0.03_cat_10_n02124075_6197.JPEG
cornet-s,7,267,NaN,cat,cat,0.03,7947_nse_dnn_0.03_cat_10_n02125311_11693.JPEG
cornet-s,7,268,NaN,cat,cat,0.03,7948_nse_dnn_0.03_cat_10_n02125311_33654.JPEG
cornet-s,7,269,NaN,cat,cat,0.03,7949_nse_dnn_0.03_cat_10_n02124075_7109.JPEG
cornet-s,7,270,NaN,cat,cat,0.03,7950_nse_dnn_0.03_cat_10_n02125311_25678.JPEG
cornet-s,7,271,NaN,bottle,bottle,0.03,7951_nse_dnn_0.03_bottle_10_n03937543_4561.JPEG
cornet-s,7,272,NaN,bottle,bottle,0.03,7952_nse_dnn_0.03_bottle_10_n02823428_9239.JPEG
cornet-s,7,273,NaN,bottle,bottle,0.03,7953_nse_dnn_0.03_bottle_10_n03937543_1812.JPEG
cornet-s,7,274,NaN,bottle,bottle,0.03,7954_nse_dnn_0.03_bottle_10_n04579145_1092.JPEG
cornet-s,7,275,NaN,bottle,bottle,0.03,7955_nse_dnn_0.03_bottle_10_n03937543_3196.JPEG
cornet-s,7,276,NaN,bottle,bottle,0.03,7956_nse_dnn_0.03_bottle_10_n04560804_11675.JPEG
cornet-s,7,277,NaN,bottle,bottle,0.03,7957_nse_dnn_0.03_bottle_10_n03983396_3955.JPEG
cornet-s,7,278,NaN,bottle,bottle,0.03,7958_nse_dnn_0.03_bottle_10_n04591713_2176.JPEG
cornet-s,7,279,NaN,bottle,bottle,0.03,7959_nse_dnn_0.03_bottle_10_n04579145_4881.JPEG
cornet-s,7,280,NaN,bottle,bottle,0.03,7960_nse_dnn_0.03_bottle_10_n04560804_14090.JPEG
cornet-s,7,281,NaN,boat,truck,0.03,7961_nse_dnn_0.03_truck_10_n03417042_29185.JPEG
cornet-s,7,282,NaN,truck,truck,0.03,7962_nse_dnn_0.03_truck_10_n03417042_1311.JPEG
cornet-s,7,283,NaN,truck,truck,0.03,7963_nse_dnn_0.03_truck_10_n03417042_16087.JPEG
cornet-s,7,284,NaN,truck,truck,0.03,7964_nse_dnn_0.03_truck_10_n04467665_33783.JPEG
cornet-s,7,285,NaN,truck,truck,0.03,7965_nse_dnn_0.03_truck_10_n03417042_11393.JPEG
cornet-s,7,286,NaN,truck,truck,0.03,7966_nse_dnn_0.03_truck_10_n04467665_34452.JPEG
cornet-s,7,287,NaN,truck,truck,0.03,7967_nse_dnn_0.03_truck_10_n04467665_15984.JPEG
cornet-s,7,288,NaN,truck,truck,0.03,7968_nse_dnn_0.03_truck_10_n04467665_43935.JPEG
cornet-s,7,289,NaN,truck,truck,0.03,7969_nse_dnn_0.03_truck_10_n03417042_12019.JPEG
cornet-s,7,290,NaN,truck,truck,0.03,7970_nse_dnn_0.03_truck_10_n03417042_6602.JPEG
cornet-s,7,291,NaN,car,car,0.03,7971_nse_dnn_0.03_car_10_n03100240_1153.JPEG
cornet-s,7,292,NaN,car,car,0.03,7972_nse_dnn_0.03_car_10_n02814533_6660.JPEG
cornet-s,7,293,NaN,truck,car,0.03,7973_nse_dnn_0.03_car_10_n04285008_10006.JPEG
cornet-s,7,294,NaN,car,car,0.03,7974_nse_dnn_0.03_car_10_n03100240_18410.JPEG
cornet-s,7,295,NaN,car,car,0.03,7975_nse_dnn_0.03_car_10_n04285008_8099.JPEG
cornet-s,7,296,NaN,truck,car,0.03,7976_nse_dnn_0.03_car_10_n04285008_7694.JPEG
cornet-s,7,297,NaN,car,car,0.03,7977_nse_dnn_0.03_car_10_n02814533_73382.JPEG
cornet-s,7,298,NaN,car,car,0.03,7978_nse_dnn_0.03_car_10_n03100240_520.JPEG
cornet-s,7,299,NaN,clock,car,0.03,7979_nse_dnn_0.03_car_10_n02814533_64961.JPEG
cornet-s,7,300,NaN,car,car,0.03,7980_nse_dnn_0.03_car_10_n04285008_17075.JPEG
cornet-s,7,301,NaN,bird,bird,0.03,7981_nse_dnn_0.03_bird_10_n02002724_4575.JPEG
cornet-s,7,302,NaN,bird,bird,0.03,7982_nse_dnn_0.03_bird_10_n01855672_7095.JPEG
cornet-s,7,303,NaN,bird,bird,0.03,7983_nse_dnn_0.03_bird_10_n02006656_564.JPEG
cornet-s,7,304,NaN,chair,bird,0.03,7984_nse_dnn_0.03_bird_10_n01843383_11759.JPEG
cornet-s,7,305,NaN,boat,bird,0.03,7985_nse_dnn_0.03_bird_10_n02009229_20898.JPEG
cornet-s,7,306,NaN,chair,bird,0.03,7986_nse_dnn_0.03_bird_10_n01843383_7741.JPEG
cornet-s,7,307,NaN,bird,bird,0.03,7987_nse_dnn_0.03_bird_10_n02013706_5910.JPEG
cornet-s,7,308,NaN,bird,bird,0.03,7988_nse_dnn_0.03_bird_10_n02028035_12525.JPEG
cornet-s,7,309,NaN,chair,bird,0.03,7989_nse_dnn_0.03_bird_10_n01843383_7772.JPEG
cornet-s,7,310,NaN,bottle,bird,0.03,7990_nse_dnn_0.03_bird_10_n01828970_7693.JPEG
cornet-s,7,311,NaN,dog,dog,0.03,7991_nse_dnn_0.03_dog_10_n02100735_1080.JPEG
cornet-s,7,312,NaN,cat,dog,0.03,7992_nse_dnn_0.03_dog_10_n02097658_10564.JPEG
cornet-s,7,313,NaN,dog,dog,0.03,7993_nse_dnn_0.03_dog_10_n02097047_2579.JPEG
cornet-s,7,314,NaN,dog,dog,0.03,7994_nse_dnn_0.03_dog_10_n02090622_7102.JPEG
cornet-s,7,315,NaN,dog,dog,0.03,7995_nse_dnn_0.03_dog_10_n02095889_3990.JPEG
cornet-s,7,316,NaN,dog,dog,0.03,7996_nse_dnn_0.03_dog_10_n02100877_6111.JPEG
cornet-s,7,317,NaN,dog,dog,0.03,7997_nse_dnn_0.03_dog_10_n02109525_21139.JPEG
cornet-s,7,318,NaN,dog,dog,0.03,7998_nse_dnn_0.03_dog_10_n02105162_3804.JPEG
cornet-s,7,319,NaN,dog,dog,0.03,7999_nse_dnn_0.03_dog_10_n02106166_14702.JPEG
cornet-s,7,320,NaN,dog,dog,0.03,8000_nse_dnn_0.03_dog_10_n02097209_6162.JPEG
cornet-s,7,321,NaN,keyboard,knife,0.05,8001_nse_dnn_0.05_knife_10_n03041632_2546.JPEG
cornet-s,7,322,NaN,knife,knife,0.05,8002_nse_dnn_0.05_knife_10_n03041632_45775.JPEG
cornet-s,7,323,NaN,clock,knife,0.05,8003_nse_dnn_0.05_knife_10_n03041632_7982.JPEG
cornet-s,7,324,NaN,airplane,knife,0.05,8004_nse_dnn_0.05_knife_10_n03041632_81004.JPEG
cornet-s,7,325,NaN,knife,knife,0.05,8005_nse_dnn_0.05_knife_10_n03041632_24561.JPEG
cornet-s,7,326,NaN,knife,knife,0.05,8006_nse_dnn_0.05_knife_10_n03041632_41077.JPEG
cornet-s,7,327,NaN,knife,knife,0.05,8007_nse_dnn_0.05_knife_10_n03041632_39883.JPEG
cornet-s,7,328,NaN,knife,knife,0.05,8008_nse_dnn_0.05_knife_10_n03041632_18141.JPEG
cornet-s,7,329,NaN,chair,knife,0.05,8009_nse_dnn_0.05_knife_10_n03041632_19614.JPEG
cornet-s,7,330,NaN,chair,knife,0.05,8010_nse_dnn_0.05_knife_10_n03041632_737.JPEG
cornet-s,7,331,NaN,keyboard,keyboard,0.05,8011_nse_dnn_0.05_keyboard_10_n04505470_5266.JPEG
cornet-s,7,332,NaN,keyboard,keyboard,0.05,8012_nse_dnn_0.05_keyboard_10_n03085013_25924.JPEG
cornet-s,7,333,NaN,keyboard,keyboard,0.05,8013_nse_dnn_0.05_keyboard_10_n04505470_4131.JPEG
cornet-s,7,334,NaN,keyboard,keyboard,0.05,8014_nse_dnn_0.05_keyboard_10_n03085013_19065.JPEG
cornet-s,7,335,NaN,chair,keyboard,0.05,8015_nse_dnn_0.05_keyboard_10_n03085013_24166.JPEG
cornet-s,7,336,NaN,keyboard,keyboard,0.05,8016_nse_dnn_0.05_keyboard_10_n04505470_3881.JPEG
cornet-s,7,337,NaN,keyboard,keyboard,0.05,8017_nse_dnn_0.05_keyboard_10_n04505470_4917.JPEG
cornet-s,7,338,NaN,keyboard,keyboard,0.05,8018_nse_dnn_0.05_keyboard_10_n04505470_4706.JPEG
cornet-s,7,339,NaN,knife,keyboard,0.05,8019_nse_dnn_0.05_keyboard_10_n03085013_15836.JPEG
cornet-s,7,340,NaN,keyboard,keyboard,0.05,8020_nse_dnn_0.05_keyboard_10_n04505470_313.JPEG
cornet-s,7,341,NaN,elephant,elephant,0.05,8021_nse_dnn_0.05_elephant_10_n02504458_3823.JPEG
cornet-s,7,342,NaN,elephant,elephant,0.05,8022_nse_dnn_0.05_elephant_10_n02504458_4117.JPEG
cornet-s,7,343,NaN,elephant,elephant,0.05,8023_nse_dnn_0.05_elephant_10_n02504013_3974.JPEG
cornet-s,7,344,NaN,elephant,elephant,0.05,8024_nse_dnn_0.05_elephant_10_n02504013_7791.JPEG
cornet-s,7,345,NaN,elephant,elephant,0.05,8025_nse_dnn_0.05_elephant_10_n02504013_730.JPEG
cornet-s,7,346,NaN,elephant,elephant,0.05,8026_nse_dnn_0.05_elephant_10_n02504013_6420.JPEG
cornet-s,7,347,NaN,elephant,elephant,0.05,8027_nse_dnn_0.05_elephant_10_n02504013_6577.JPEG
cornet-s,7,348,NaN,elephant,elephant,0.05,8028_nse_dnn_0.05_elephant_10_n02504013_9566.JPEG
cornet-s,7,349,NaN,elephant,elephant,0.05,8029_nse_dnn_0.05_elephant_10_n02504458_11949.JPEG
cornet-s,7,350,NaN,elephant,elephant,0.05,8030_nse_dnn_0.05_elephant_10_n02504458_6050.JPEG
cornet-s,7,351,NaN,bicycle,bicycle,0.05,8031_nse_dnn_0.05_bicycle_10_n02835271_20104.JPEG
cornet-s,7,352,NaN,bicycle,bicycle,0.05,8032_nse_dnn_0.05_bicycle_10_n02835271_6329.JPEG
cornet-s,7,353,NaN,bicycle,bicycle,0.05,8033_nse_dnn_0.05_bicycle_10_n02835271_672.JPEG
cornet-s,7,354,NaN,bicycle,bicycle,0.05,8034_nse_dnn_0.05_bicycle_10_n02835271_8796.JPEG
cornet-s,7,355,NaN,bicycle,bicycle,0.05,8035_nse_dnn_0.05_bicycle_10_n03792782_15752.JPEG
cornet-s,7,356,NaN,bicycle,bicycle,0.05,8036_nse_dnn_0.05_bicycle_10_n02835271_4797.JPEG
cornet-s,7,357,NaN,boat,bicycle,0.05,8037_nse_dnn_0.05_bicycle_10_n03792782_4068.JPEG
cornet-s,7,358,NaN,bicycle,bicycle,0.05,8038_nse_dnn_0.05_bicycle_10_n03792782_33116.JPEG
cornet-s,7,359,NaN,chair,bicycle,0.05,8039_nse_dnn_0.05_bicycle_10_n03792782_5180.JPEG
cornet-s,7,360,NaN,bicycle,bicycle,0.05,8040_nse_dnn_0.05_bicycle_10_n03792782_973.JPEG
cornet-s,7,361,NaN,airplane,airplane,0.05,8041_nse_dnn_0.05_airplane_10_n02690373_4943.JPEG
cornet-s,7,362,NaN,airplane,airplane,0.05,8042_nse_dnn_0.05_airplane_10_n02690373_1348.JPEG
cornet-s,7,363,NaN,airplane,airplane,0.05,8043_nse_dnn_0.05_airplane_10_n02690373_9869.JPEG
cornet-s,7,364,NaN,airplane,airplane,0.05,8044_nse_dnn_0.05_airplane_10_n02690373_2316.JPEG
cornet-s,7,365,NaN,airplane,airplane,0.05,8045_nse_dnn_0.05_airplane_10_n02690373_20074.JPEG
cornet-s,7,366,NaN,airplane,airplane,0.05,8046_nse_dnn_0.05_airplane_10_n02690373_9324.JPEG
cornet-s,7,367,NaN,airplane,airplane,0.05,8047_nse_dnn_0.05_airplane_10_n02690373_5007.JPEG
cornet-s,7,368,NaN,airplane,airplane,0.05,8048_nse_dnn_0.05_airplane_10_n02690373_2967.JPEG
cornet-s,7,369,NaN,airplane,airplane,0.05,8049_nse_dnn_0.05_airplane_10_n02690373_7276.JPEG
cornet-s,7,370,NaN,airplane,airplane,0.05,8050_nse_dnn_0.05_airplane_10_n02690373_10382.JPEG
cornet-s,7,371,NaN,chair,clock,0.05,8051_nse_dnn_0.05_clock_10_n04548280_5305.JPEG
cornet-s,7,372,NaN,clock,clock,0.05,8052_nse_dnn_0.05_clock_10_n04548280_3153.JPEG
cornet-s,7,373,NaN,clock,clock,0.05,8053_nse_dnn_0.05_clock_10_n04548280_530.JPEG
cornet-s,7,374,NaN,chair,clock,0.05,8054_nse_dnn_0.05_clock_10_n03196217_5258.JPEG
cornet-s,7,375,NaN,clock,clock,0.05,8055_nse_dnn_0.05_clock_10_n02708093_2833.JPEG
cornet-s,7,376,NaN,clock,clock,0.05,8056_nse_dnn_0.05_clock_10_n02708093_2530.JPEG
cornet-s,7,377,NaN,clock,clock,0.05,8057_nse_dnn_0.05_clock_10_n03196217_1168.JPEG
cornet-s,7,378,NaN,clock,clock,0.05,8058_nse_dnn_0.05_clock_10_n02708093_6936.JPEG
cornet-s,7,379,NaN,clock,clock,0.05,8059_nse_dnn_0.05_clock_10_n02708093_175.JPEG
cornet-s,7,380,NaN,clock,clock,0.05,8060_nse_dnn_0.05_clock_10_n02708093_5634.JPEG
cornet-s,7,381,NaN,oven,oven,0.05,8061_nse_dnn_0.05_oven_10_n04111531_12830.JPEG
cornet-s,7,382,NaN,chair,oven,0.05,8062_nse_dnn_0.05_oven_10_n04111531_3193.JPEG
cornet-s,7,383,NaN,knife,oven,0.05,8063_nse_dnn_0.05_oven_10_n04111531_49.JPEG
cornet-s,7,384,NaN,cat,oven,0.05,8064_nse_dnn_0.05_oven_10_n04111531_8934.JPEG
cornet-s,7,385,NaN,chair,oven,0.05,8065_nse_dnn_0.05_oven_10_n04111531_7134.JPEG
cornet-s,7,386,NaN,bicycle,oven,0.05,8066_nse_dnn_0.05_oven_10_n04111531_13486.JPEG
cornet-s,7,387,NaN,clock,oven,0.05,8067_nse_dnn_0.05_oven_10_n04111531_121.JPEG
cornet-s,7,388,NaN,knife,oven,0.05,8068_nse_dnn_0.05_oven_10_n04111531_11405.JPEG
cornet-s,7,389,NaN,knife,oven,0.05,8069_nse_dnn_0.05_oven_10_n04111531_14903.JPEG
cornet-s,7,390,NaN,chair,oven,0.05,8070_nse_dnn_0.05_oven_10_n04111531_5290.JPEG
cornet-s,7,391,NaN,chair,chair,0.05,8071_nse_dnn_0.05_chair_10_n02791124_7140.JPEG
cornet-s,7,392,NaN,chair,chair,0.05,8072_nse_dnn_0.05_chair_10_n02791124_3144.JPEG
cornet-s,7,393,NaN,chair,chair,0.05,8073_nse_dnn_0.05_chair_10_n02791124_4746.JPEG
cornet-s,7,394,NaN,chair,chair,0.05,8074_nse_dnn_0.05_chair_10_n04429376_14237.JPEG
cornet-s,7,395,NaN,chair,chair,0.05,8075_nse_dnn_0.05_chair_10_n04429376_4601.JPEG
cornet-s,7,396,NaN,chair,chair,0.05,8076_nse_dnn_0.05_chair_10_n04099969_17404.JPEG
cornet-s,7,397,NaN,chair,chair,0.05,8077_nse_dnn_0.05_chair_10_n03376595_1961.JPEG
cornet-s,7,398,NaN,chair,chair,0.05,8078_nse_dnn_0.05_chair_10_n02791124_15566.JPEG
cornet-s,7,399,NaN,chair,chair,0.05,8079_nse_dnn_0.05_chair_10_n04429376_20837.JPEG
cornet-s,7,400,NaN,chair,chair,0.05,8080_nse_dnn_0.05_chair_10_n02791124_5319.JPEG
cornet-s,7,401,NaN,bicycle,bear,0.05,8081_nse_dnn_0.05_bear_10_n02134418_178.JPEG
cornet-s,7,402,NaN,bear,bear,0.05,8082_nse_dnn_0.05_bear_10_n02134418_3291.JPEG
cornet-s,7,403,NaN,elephant,bear,0.05,8083_nse_dnn_0.05_bear_10_n02133161_3769.JPEG
cornet-s,7,404,NaN,bear,bear,0.05,8084_nse_dnn_0.05_bear_10_n02132136_28791.JPEG
cornet-s,7,405,NaN,bear,bear,0.05,8085_nse_dnn_0.05_bear_10_n02133161_250.JPEG
cornet-s,7,406,NaN,cat,bear,0.05,8086_nse_dnn_0.05_bear_10_n02134418_1206.JPEG
cornet-s,7,407,NaN,bear,bear,0.05,8087_nse_dnn_0.05_bear_10_n02133161_2235.JPEG
cornet-s,7,408,NaN,bear,bear,0.05,8088_nse_dnn_0.05_bear_10_n02133161_1084.JPEG
cornet-s,7,409,NaN,bear,bear,0.05,8089_nse_dnn_0.05_bear_10_n02132136_19728.JPEG
cornet-s,7,410,NaN,boat,bear,0.05,8090_nse_dnn_0.05_bear_10_n02134418_4244.JPEG
cornet-s,7,411,NaN,boat,boat,0.05,8091_nse_dnn_0.05_boat_10_n03662601_17460.JPEG
cornet-s,7,412,NaN,airplane,boat,0.05,8092_nse_dnn_0.05_boat_10_n04273569_27989.JPEG
cornet-s,7,413,NaN,boat,boat,0.05,8093_nse_dnn_0.05_boat_10_n02951358_10512.JPEG
cornet-s,7,414,NaN,boat,boat,0.05,8094_nse_dnn_0.05_boat_10_n03662601_31508.JPEG
cornet-s,7,415,NaN,boat,boat,0.05,8095_nse_dnn_0.05_boat_10_n03344393_3773.JPEG
cornet-s,7,416,NaN,boat,boat,0.05,8096_nse_dnn_0.05_boat_10_n04612504_11949.JPEG
cornet-s,7,417,NaN,boat,boat,0.05,8097_nse_dnn_0.05_boat_10_n03344393_5566.JPEG
cornet-s,7,418,NaN,truck,boat,0.05,8098_nse_dnn_0.05_boat_10_n03662601_32417.JPEG
cornet-s,7,419,NaN,boat,boat,0.05,8099_nse_dnn_0.05_boat_10_n02951358_34421.JPEG
cornet-s,7,420,NaN,boat,boat,0.05,8100_nse_dnn_0.05_boat_10_n04612504_14406.JPEG
cornet-s,7,421,NaN,cat,cat,0.05,8101_nse_dnn_0.05_cat_10_n02123159_4870.JPEG
cornet-s,7,422,NaN,cat,cat,0.05,8102_nse_dnn_0.05_cat_10_n02123394_8236.JPEG
cornet-s,7,423,NaN,cat,cat,0.05,8103_nse_dnn_0.05_cat_10_n02123394_217.JPEG
cornet-s,7,424,NaN,cat,cat,0.05,8104_nse_dnn_0.05_cat_10_n02124075_4425.JPEG
cornet-s,7,425,NaN,cat,cat,0.05,8105_nse_dnn_0.05_cat_10_n02123045_2714.JPEG
cornet-s,7,426,NaN,cat,cat,0.05,8106_nse_dnn_0.05_cat_10_n02123394_5402.JPEG
cornet-s,7,427,NaN,cat,cat,0.05,8107_nse_dnn_0.05_cat_10_n02124075_380.JPEG
cornet-s,7,428,NaN,cat,cat,0.05,8108_nse_dnn_0.05_cat_10_n02124075_5393.JPEG
cornet-s,7,429,NaN,bear,cat,0.05,8109_nse_dnn_0.05_cat_10_n02123597_6969.JPEG
cornet-s,7,430,NaN,cat,cat,0.05,8110_nse_dnn_0.05_cat_10_n02125311_14805.JPEG
cornet-s,7,431,NaN,bottle,bottle,0.05,8111_nse_dnn_0.05_bottle_10_n04560804_32932.JPEG
cornet-s,7,432,NaN,bottle,bottle,0.05,8112_nse_dnn_0.05_bottle_10_n03937543_11325.JPEG
cornet-s,7,433,NaN,truck,bottle,0.05,8113_nse_dnn_0.05_bottle_10_n03983396_5545.JPEG
cornet-s,7,434,NaN,bottle,bottle,0.05,8114_nse_dnn_0.05_bottle_10_n04579145_2276.JPEG
cornet-s,7,435,NaN,bottle,bottle,0.05,8115_nse_dnn_0.05_bottle_10_n04579145_4417.JPEG
cornet-s,7,436,NaN,truck,bottle,0.05,8116_nse_dnn_0.05_bottle_10_n03937543_349.JPEG
cornet-s,7,437,NaN,chair,bottle,0.05,8117_nse_dnn_0.05_bottle_10_n02823428_8373.JPEG
cornet-s,7,438,NaN,knife,bottle,0.05,8118_nse_dnn_0.05_bottle_10_n02823428_1079.JPEG
cornet-s,7,439,NaN,bottle,bottle,0.05,8119_nse_dnn_0.05_bottle_10_n04560804_8522.JPEG
cornet-s,7,440,NaN,bottle,bottle,0.05,8120_nse_dnn_0.05_bottle_10_n02823428_3544.JPEG
cornet-s,7,441,NaN,truck,truck,0.05,8121_nse_dnn_0.05_truck_10_n03417042_27630.JPEG
cornet-s,7,442,NaN,chair,truck,0.05,8122_nse_dnn_0.05_truck_10_n03796401_8964.JPEG
cornet-s,7,443,NaN,truck,truck,0.05,8123_nse_dnn_0.05_truck_10_n03417042_28519.JPEG
cornet-s,7,444,NaN,bicycle,truck,0.05,8124_nse_dnn_0.05_truck_10_n04467665_6450.JPEG
cornet-s,7,445,NaN,truck,truck,0.05,8125_nse_dnn_0.05_truck_10_n04467665_67922.JPEG
cornet-s,7,446,NaN,elephant,truck,0.05,8126_nse_dnn_0.05_truck_10_n04467665_45611.JPEG
cornet-s,7,447,NaN,truck,truck,0.05,8127_nse_dnn_0.05_truck_10_n03417042_22196.JPEG
cornet-s,7,448,NaN,truck,truck,0.05,8128_nse_dnn_0.05_truck_10_n04467665_24829.JPEG
cornet-s,7,449,NaN,truck,truck,0.05,8129_nse_dnn_0.05_truck_10_n03417042_6581.JPEG
cornet-s,7,450,NaN,clock,truck,0.05,8130_nse_dnn_0.05_truck_10_n03417042_2633.JPEG
cornet-s,7,451,NaN,car,car,0.05,8131_nse_dnn_0.05_car_10_n02814533_46219.JPEG
cornet-s,7,452,NaN,truck,car,0.05,8132_nse_dnn_0.05_car_10_n04285008_713.JPEG
cornet-s,7,453,NaN,car,car,0.05,8133_nse_dnn_0.05_car_10_n04285008_1026.JPEG
cornet-s,7,454,NaN,truck,car,0.05,8134_nse_dnn_0.05_car_10_n02814533_428.JPEG
cornet-s,7,455,NaN,truck,car,0.05,8135_nse_dnn_0.05_car_10_n02814533_10706.JPEG
cornet-s,7,456,NaN,car,car,0.05,8136_nse_dnn_0.05_car_10_n04285008_2841.JPEG
cornet-s,7,457,NaN,car,car,0.05,8137_nse_dnn_0.05_car_10_n04285008_8677.JPEG
cornet-s,7,458,NaN,truck,car,0.05,8138_nse_dnn_0.05_car_10_n04285008_7034.JPEG
cornet-s,7,459,NaN,truck,car,0.05,8139_nse_dnn_0.05_car_10_n04285008_13291.JPEG
cornet-s,7,460,NaN,truck,car,0.05,8140_nse_dnn_0.05_car_10_n02814533_53170.JPEG
cornet-s,7,461,NaN,elephant,bird,0.05,8141_nse_dnn_0.05_bird_10_n02009912_18513.JPEG
cornet-s,7,462,NaN,elephant,bird,0.05,8142_nse_dnn_0.05_bird_10_n01860187_6306.JPEG
cornet-s,7,463,NaN,elephant,bird,0.05,8143_nse_dnn_0.05_bird_10_n02033041_3674.JPEG
cornet-s,7,464,NaN,chair,bird,0.05,8144_nse_dnn_0.05_bird_10_n01843065_1329.JPEG
cornet-s,7,465,NaN,boat,bird,0.05,8145_nse_dnn_0.05_bird_10_n01530575_9857.JPEG
cornet-s,7,466,NaN,bird,bird,0.05,8146_nse_dnn_0.05_bird_10_n01616318_2195.JPEG
cornet-s,7,467,NaN,bird,bird,0.05,8147_nse_dnn_0.05_bird_10_n02037110_26465.JPEG
cornet-s,7,468,NaN,elephant,bird,0.05,8148_nse_dnn_0.05_bird_10_n01532829_2522.JPEG
cornet-s,7,469,NaN,elephant,bird,0.05,8149_nse_dnn_0.05_bird_10_n02006656_3800.JPEG
cornet-s,7,470,NaN,bicycle,bird,0.05,8150_nse_dnn_0.05_bird_10_n01601694_12018.JPEG
cornet-s,7,471,NaN,dog,dog,0.05,8151_nse_dnn_0.05_dog_10_n02088364_5631.JPEG
cornet-s,7,472,NaN,dog,dog,0.05,8152_nse_dnn_0.05_dog_10_n02107312_2307.JPEG
cornet-s,7,473,NaN,dog,dog,0.05,8153_nse_dnn_0.05_dog_10_n02107574_4337.JPEG
cornet-s,7,474,NaN,bear,dog,0.05,8154_nse_dnn_0.05_dog_10_n02104029_4059.JPEG
cornet-s,7,475,NaN,dog,dog,0.05,8155_nse_dnn_0.05_dog_10_n02092002_12002.JPEG
cornet-s,7,476,NaN,elephant,dog,0.05,8156_nse_dnn_0.05_dog_10_n02106550_4563.JPEG
cornet-s,7,477,NaN,clock,dog,0.05,8157_nse_dnn_0.05_dog_10_n02102318_11531.JPEG
cornet-s,7,478,NaN,dog,dog,0.05,8158_nse_dnn_0.05_dog_10_n02088466_8320.JPEG
cornet-s,7,479,NaN,dog,dog,0.05,8159_nse_dnn_0.05_dog_10_n02089078_8915.JPEG
cornet-s,7,480,NaN,dog,dog,0.05,8160_nse_dnn_0.05_dog_10_n02088364_15454.JPEG
cornet-s,7,481,NaN,boat,knife,0.10,8161_nse_dnn_0.10_knife_10_n03041632_11816.JPEG
cornet-s,7,482,NaN,chair,knife,0.10,8162_nse_dnn_0.10_knife_10_n03041632_29038.JPEG
cornet-s,7,483,NaN,chair,knife,0.10,8163_nse_dnn_0.10_knife_10_n03041632_25257.JPEG
cornet-s,7,484,NaN,clock,knife,0.10,8164_nse_dnn_0.10_knife_10_n03041632_43625.JPEG
cornet-s,7,485,NaN,clock,knife,0.10,8165_nse_dnn_0.10_knife_10_n03041632_17285.JPEG
cornet-s,7,486,NaN,bear,knife,0.10,8166_nse_dnn_0.10_knife_10_n03041632_23546.JPEG
cornet-s,7,487,NaN,chair,knife,0.10,8167_nse_dnn_0.10_knife_10_n03041632_33326.JPEG
cornet-s,7,488,NaN,boat,knife,0.10,8168_nse_dnn_0.10_knife_10_n03041632_12949.JPEG
cornet-s,7,489,NaN,clock,knife,0.10,8169_nse_dnn_0.10_knife_10_n03041632_13194.JPEG
cornet-s,7,490,NaN,clock,knife,0.10,8170_nse_dnn_0.10_knife_10_n03041632_28658.JPEG
cornet-s,7,491,NaN,keyboard,keyboard,0.10,8171_nse_dnn_0.10_keyboard_10_n04505470_3306.JPEG
cornet-s,7,492,NaN,keyboard,keyboard,0.10,8172_nse_dnn_0.10_keyboard_10_n04505470_3959.JPEG
cornet-s,7,493,NaN,keyboard,keyboard,0.10,8173_nse_dnn_0.10_keyboard_10_n04505470_1551.JPEG
cornet-s,7,494,NaN,keyboard,keyboard,0.10,8174_nse_dnn_0.10_keyboard_10_n04505470_5561.JPEG
cornet-s,7,495,NaN,boat,keyboard,0.10,8175_nse_dnn_0.10_keyboard_10_n03085013_30660.JPEG
cornet-s,7,496,NaN,clock,keyboard,0.10,8176_nse_dnn_0.10_keyboard_10_n03085013_2300.JPEG
cornet-s,7,497,NaN,keyboard,keyboard,0.10,8177_nse_dnn_0.10_keyboard_10_n04505470_213.JPEG
cornet-s,7,498,NaN,chair,keyboard,0.10,8178_nse_dnn_0.10_keyboard_10_n03085013_21447.JPEG
cornet-s,7,499,NaN,chair,keyboard,0.10,8179_nse_dnn_0.10_keyboard_10_n03085013_19601.JPEG
cornet-s,7,500,NaN,cat,keyboard,0.10,8180_nse_dnn_0.10_keyboard_10_n03085013_15825.JPEG
cornet-s,7,501,NaN,chair,elephant,0.10,8181_nse_dnn_0.10_elephant_10_n02504013_3216.JPEG
cornet-s,7,502,NaN,dog,elephant,0.10,8182_nse_dnn_0.10_elephant_10_n02504458_4014.JPEG
cornet-s,7,503,NaN,bear,elephant,0.10,8183_nse_dnn_0.10_elephant_10_n02504013_5439.JPEG
cornet-s,7,504,NaN,chair,elephant,0.10,8184_nse_dnn_0.10_elephant_10_n02504458_12303.JPEG
cornet-s,7,505,NaN,clock,elephant,0.10,8185_nse_dnn_0.10_elephant_10_n02504013_11159.JPEG
cornet-s,7,506,NaN,boat,elephant,0.10,8186_nse_dnn_0.10_elephant_10_n02504458_5996.JPEG
cornet-s,7,507,NaN,elephant,elephant,0.10,8187_nse_dnn_0.10_elephant_10_n02504458_6510.JPEG
cornet-s,7,508,NaN,chair,elephant,0.10,8188_nse_dnn_0.10_elephant_10_n02504458_4058.JPEG
cornet-s,7,509,NaN,bear,elephant,0.10,8189_nse_dnn_0.10_elephant_10_n02504013_10909.JPEG
cornet-s,7,510,NaN,elephant,elephant,0.10,8190_nse_dnn_0.10_elephant_10_n02504458_325.JPEG
cornet-s,7,511,NaN,chair,bicycle,0.10,8191_nse_dnn_0.10_bicycle_10_n02835271_6157.JPEG
cornet-s,7,512,NaN,clock,bicycle,0.10,8192_nse_dnn_0.10_bicycle_10_n03792782_15561.JPEG
cornet-s,7,513,NaN,bicycle,bicycle,0.10,8193_nse_dnn_0.10_bicycle_10_n02835271_10910.JPEG
cornet-s,7,514,NaN,clock,bicycle,0.10,8194_nse_dnn_0.10_bicycle_10_n03792782_20475.JPEG
cornet-s,7,515,NaN,bicycle,bicycle,0.10,8195_nse_dnn_0.10_bicycle_10_n02835271_12131.JPEG
cornet-s,7,516,NaN,chair,bicycle,0.10,8196_nse_dnn_0.10_bicycle_10_n02835271_3947.JPEG
cornet-s,7,517,NaN,bicycle,bicycle,0.10,8197_nse_dnn_0.10_bicycle_10_n02835271_270.JPEG
cornet-s,7,518,NaN,chair,bicycle,0.10,8198_nse_dnn_0.10_bicycle_10_n02835271_530.JPEG
cornet-s,7,519,NaN,clock,bicycle,0.10,8199_nse_dnn_0.10_bicycle_10_n03792782_3299.JPEG
cornet-s,7,520,NaN,bicycle,bicycle,0.10,8200_nse_dnn_0.10_bicycle_10_n03792782_35669.JPEG
cornet-s,7,521,NaN,chair,airplane,0.10,8201_nse_dnn_0.10_airplane_10_n02690373_1350.JPEG
cornet-s,7,522,NaN,airplane,airplane,0.10,8202_nse_dnn_0.10_airplane_10_n02690373_12896.JPEG
cornet-s,7,523,NaN,boat,airplane,0.10,8203_nse_dnn_0.10_airplane_10_n02690373_9012.JPEG
cornet-s,7,524,NaN,boat,airplane,0.10,8204_nse_dnn_0.10_airplane_10_n02690373_19286.JPEG
cornet-s,7,525,NaN,boat,airplane,0.10,8205_nse_dnn_0.10_airplane_10_n02690373_6535.JPEG
cornet-s,7,526,NaN,airplane,airplane,0.10,8206_nse_dnn_0.10_airplane_10_n02690373_379.JPEG
cornet-s,7,527,NaN,boat,airplane,0.10,8207_nse_dnn_0.10_airplane_10_n02690373_1975.JPEG
cornet-s,7,528,NaN,boat,airplane,0.10,8208_nse_dnn_0.10_airplane_10_n02690373_4714.JPEG
cornet-s,7,529,NaN,airplane,airplane,0.10,8209_nse_dnn_0.10_airplane_10_n02690373_1819.JPEG
cornet-s,7,530,NaN,boat,airplane,0.10,8210_nse_dnn_0.10_airplane_10_n02690373_5534.JPEG
cornet-s,7,531,NaN,chair,clock,0.10,8211_nse_dnn_0.10_clock_10_n04548280_8225.JPEG
cornet-s,7,532,NaN,keyboard,clock,0.10,8212_nse_dnn_0.10_clock_10_n03196217_7744.JPEG
cornet-s,7,533,NaN,clock,clock,0.10,8213_nse_dnn_0.10_clock_10_n02708093_1546.JPEG
cornet-s,7,534,NaN,chair,clock,0.10,8214_nse_dnn_0.10_clock_10_n04548280_2472.JPEG
cornet-s,7,535,NaN,clock,clock,0.10,8215_nse_dnn_0.10_clock_10_n04548280_5074.JPEG
cornet-s,7,536,NaN,clock,clock,0.10,8216_nse_dnn_0.10_clock_10_n04548280_12718.JPEG
cornet-s,7,537,NaN,bottle,clock,0.10,8217_nse_dnn_0.10_clock_10_n04548280_7826.JPEG
cornet-s,7,538,NaN,clock,clock,0.10,8218_nse_dnn_0.10_clock_10_n04548280_2421.JPEG
cornet-s,7,539,NaN,bottle,clock,0.10,8219_nse_dnn_0.10_clock_10_n03196217_5620.JPEG
cornet-s,7,540,NaN,clock,clock,0.10,8220_nse_dnn_0.10_clock_10_n02708093_1100.JPEG
cornet-s,7,541,NaN,clock,oven,0.10,8221_nse_dnn_0.10_oven_10_n04111531_7072.JPEG
cornet-s,7,542,NaN,clock,oven,0.10,8222_nse_dnn_0.10_oven_10_n04111531_20429.JPEG
cornet-s,7,543,NaN,chair,oven,0.10,8223_nse_dnn_0.10_oven_10_n04111531_9781.JPEG
cornet-s,7,544,NaN,chair,oven,0.10,8224_nse_dnn_0.10_oven_10_n04111531_13520.JPEG
cornet-s,7,545,NaN,knife,oven,0.10,8225_nse_dnn_0.10_oven_10_n04111531_21973.JPEG
cornet-s,7,546,NaN,chair,oven,0.10,8226_nse_dnn_0.10_oven_10_n04111531_8723.JPEG
cornet-s,7,547,NaN,chair,oven,0.10,8227_nse_dnn_0.10_oven_10_n04111531_5246.JPEG
cornet-s,7,548,NaN,boat,oven,0.10,8228_nse_dnn_0.10_oven_10_n04111531_7139.JPEG
cornet-s,7,549,NaN,knife,oven,0.10,8229_nse_dnn_0.10_oven_10_n04111531_774.JPEG
cornet-s,7,550,NaN,knife,oven,0.10,8230_nse_dnn_0.10_oven_10_n04111531_520.JPEG
cornet-s,7,551,NaN,chair,chair,0.10,8231_nse_dnn_0.10_chair_10_n04099969_34351.JPEG
cornet-s,7,552,NaN,elephant,chair,0.10,8232_nse_dnn_0.10_chair_10_n04429376_534.JPEG
cornet-s,7,553,NaN,chair,chair,0.10,8233_nse_dnn_0.10_chair_10_n03376595_7178.JPEG
cornet-s,7,554,NaN,bicycle,chair,0.10,8234_nse_dnn_0.10_chair_10_n03376595_2694.JPEG
cornet-s,7,555,NaN,chair,chair,0.10,8235_nse_dnn_0.10_chair_10_n03376595_89.JPEG
cornet-s,7,556,NaN,chair,chair,0.10,8236_nse_dnn_0.10_chair_10_n03376595_6589.JPEG
cornet-s,7,557,NaN,chair,chair,0.10,8237_nse_dnn_0.10_chair_10_n04099969_18953.JPEG
cornet-s,7,558,NaN,chair,chair,0.10,8238_nse_dnn_0.10_chair_10_n04429376_17816.JPEG
cornet-s,7,559,NaN,chair,chair,0.10,8239_nse_dnn_0.10_chair_10_n04429376_18585.JPEG
cornet-s,7,560,NaN,chair,chair,0.10,8240_nse_dnn_0.10_chair_10_n04099969_7400.JPEG
cornet-s,7,561,NaN,bear,bear,0.10,8241_nse_dnn_0.10_bear_10_n02134418_249.JPEG
cornet-s,7,562,NaN,cat,bear,0.10,8242_nse_dnn_0.10_bear_10_n02134418_1072.JPEG
cornet-s,7,563,NaN,boat,bear,0.10,8243_nse_dnn_0.10_bear_10_n02132136_15450.JPEG
cornet-s,7,564,NaN,bear,bear,0.10,8244_nse_dnn_0.10_bear_10_n02132136_5453.JPEG
cornet-s,7,565,NaN,bear,bear,0.10,8245_nse_dnn_0.10_bear_10_n02133161_5235.JPEG
cornet-s,7,566,NaN,elephant,bear,0.10,8246_nse_dnn_0.10_bear_10_n02134418_9463.JPEG
cornet-s,7,567,NaN,boat,bear,0.10,8247_nse_dnn_0.10_bear_10_n02132136_22594.JPEG
cornet-s,7,568,NaN,boat,bear,0.10,8248_nse_dnn_0.10_bear_10_n02134418_3148.JPEG
cornet-s,7,569,NaN,cat,bear,0.10,8249_nse_dnn_0.10_bear_10_n02134084_16227.JPEG
cornet-s,7,570,NaN,bear,bear,0.10,8250_nse_dnn_0.10_bear_10_n02134084_11808.JPEG
cornet-s,7,571,NaN,chair,boat,0.10,8251_nse_dnn_0.10_boat_10_n03662601_34625.JPEG
cornet-s,7,572,NaN,boat,boat,0.10,8252_nse_dnn_0.10_boat_10_n03662601_2962.JPEG
cornet-s,7,573,NaN,bicycle,boat,0.10,8253_nse_dnn_0.10_boat_10_n02951358_3171.JPEG
cornet-s,7,574,NaN,airplane,boat,0.10,8254_nse_dnn_0.10_boat_10_n03344393_6574.JPEG
cornet-s,7,575,NaN,clock,boat,0.10,8255_nse_dnn_0.10_boat_10_n03662601_23409.JPEG
cornet-s,7,576,NaN,chair,boat,0.10,8256_nse_dnn_0.10_boat_10_n03662601_8384.JPEG
cornet-s,7,577,NaN,boat,boat,0.10,8257_nse_dnn_0.10_boat_10_n04612504_770.JPEG
cornet-s,7,578,NaN,boat,boat,0.10,8258_nse_dnn_0.10_boat_10_n04273569_10524.JPEG
cornet-s,7,579,NaN,boat,boat,0.10,8259_nse_dnn_0.10_boat_10_n03344393_10295.JPEG
cornet-s,7,580,NaN,boat,boat,0.10,8260_nse_dnn_0.10_boat_10_n03662601_8485.JPEG
cornet-s,7,581,NaN,cat,cat,0.10,8261_nse_dnn_0.10_cat_10_n02125311_1721.JPEG
cornet-s,7,582,NaN,cat,cat,0.10,8262_nse_dnn_0.10_cat_10_n02123045_1754.JPEG
cornet-s,7,583,NaN,bear,cat,0.10,8263_nse_dnn_0.10_cat_10_n02124075_2674.JPEG
cornet-s,7,584,NaN,cat,cat,0.10,8264_nse_dnn_0.10_cat_10_n02123045_3965.JPEG
cornet-s,7,585,NaN,knife,cat,0.10,8265_nse_dnn_0.10_cat_10_n02123394_4178.JPEG
cornet-s,7,586,NaN,boat,cat,0.10,8266_nse_dnn_0.10_cat_10_n02123597_11658.JPEG
cornet-s,7,587,NaN,elephant,cat,0.10,8267_nse_dnn_0.10_cat_10_n02125311_35698.JPEG
cornet-s,7,588,NaN,chair,cat,0.10,8268_nse_dnn_0.10_cat_10_n02123159_3536.JPEG
cornet-s,7,589,NaN,clock,cat,0.10,8269_nse_dnn_0.10_cat_10_n02123597_4728.JPEG
cornet-s,7,590,NaN,chair,cat,0.10,8270_nse_dnn_0.10_cat_10_n02125311_21069.JPEG
cornet-s,7,591,NaN,clock,bottle,0.10,8271_nse_dnn_0.10_bottle_10_n04557648_9504.JPEG
cornet-s,7,592,NaN,knife,bottle,0.10,8272_nse_dnn_0.10_bottle_10_n03983396_4419.JPEG
cornet-s,7,593,NaN,chair,bottle,0.10,8273_nse_dnn_0.10_bottle_10_n04560804_3754.JPEG
cornet-s,7,594,NaN,bottle,bottle,0.10,8274_nse_dnn_0.10_bottle_10_n04591713_1761.JPEG
cornet-s,7,595,NaN,bear,bottle,0.10,8275_nse_dnn_0.10_bottle_10_n04560804_6067.JPEG
cornet-s,7,596,NaN,clock,bottle,0.10,8276_nse_dnn_0.10_bottle_10_n03983396_3331.JPEG
cornet-s,7,597,NaN,elephant,bottle,0.10,8277_nse_dnn_0.10_bottle_10_n04557648_3282.JPEG
cornet-s,7,598,NaN,chair,bottle,0.10,8278_nse_dnn_0.10_bottle_10_n04591713_5472.JPEG
cornet-s,7,599,NaN,knife,bottle,0.10,8279_nse_dnn_0.10_bottle_10_n03983396_6088.JPEG
cornet-s,7,600,NaN,bottle,bottle,0.10,8280_nse_dnn_0.10_bottle_10_n04557648_1880.JPEG
cornet-s,7,601,NaN,chair,truck,0.10,8281_nse_dnn_0.10_truck_10_n03796401_4899.JPEG
cornet-s,7,602,NaN,truck,truck,0.10,8282_nse_dnn_0.10_truck_10_n04467665_663.JPEG
cornet-s,7,603,NaN,truck,truck,0.10,8283_nse_dnn_0.10_truck_10_n03796401_2012.JPEG
cornet-s,7,604,NaN,keyboard,truck,0.10,8284_nse_dnn_0.10_truck_10_n03796401_17318.JPEG
cornet-s,7,605,NaN,truck,truck,0.10,8285_nse_dnn_0.10_truck_10_n03796401_6841.JPEG
cornet-s,7,606,NaN,truck,truck,0.10,8286_nse_dnn_0.10_truck_10_n03796401_3487.JPEG
cornet-s,7,607,NaN,truck,truck,0.10,8287_nse_dnn_0.10_truck_10_n03417042_6442.JPEG
cornet-s,7,608,NaN,truck,truck,0.10,8288_nse_dnn_0.10_truck_10_n03417042_11165.JPEG
cornet-s,7,609,NaN,truck,truck,0.10,8289_nse_dnn_0.10_truck_10_n04467665_57697.JPEG
cornet-s,7,610,NaN,boat,truck,0.10,8290_nse_dnn_0.10_truck_10_n04467665_70988.JPEG
cornet-s,7,611,NaN,chair,car,0.10,8291_nse_dnn_0.10_car_10_n03100240_1397.JPEG
cornet-s,7,612,NaN,boat,car,0.10,8292_nse_dnn_0.10_car_10_n03100240_8743.JPEG
cornet-s,7,613,NaN,car,car,0.10,8293_nse_dnn_0.10_car_10_n02814533_82248.JPEG
cornet-s,7,614,NaN,truck,car,0.10,8294_nse_dnn_0.10_car_10_n03100240_5160.JPEG
cornet-s,7,615,NaN,keyboard,car,0.10,8295_nse_dnn_0.10_car_10_n03100240_7066.JPEG
cornet-s,7,616,NaN,truck,car,0.10,8296_nse_dnn_0.10_car_10_n02814533_43040.JPEG
cornet-s,7,617,NaN,chair,car,0.10,8297_nse_dnn_0.10_car_10_n04285008_1243.JPEG
cornet-s,7,618,NaN,boat,car,0.10,8298_nse_dnn_0.10_car_10_n03100240_11672.JPEG
cornet-s,7,619,NaN,clock,car,0.10,8299_nse_dnn_0.10_car_10_n03100240_9412.JPEG
cornet-s,7,620,NaN,car,car,0.10,8300_nse_dnn_0.10_car_10_n03100240_3136.JPEG
cornet-s,7,621,NaN,bottle,bird,0.10,8301_nse_dnn_0.10_bird_10_n02009229_21524.JPEG
cornet-s,7,622,NaN,chair,bird,0.10,8302_nse_dnn_0.10_bird_10_n02028035_4463.JPEG
cornet-s,7,623,NaN,elephant,bird,0.10,8303_nse_dnn_0.10_bird_10_n02056570_4626.JPEG
cornet-s,7,624,NaN,bird,bird,0.10,8304_nse_dnn_0.10_bird_10_n02037110_10070.JPEG
cornet-s,7,625,NaN,elephant,bird,0.10,8305_nse_dnn_0.10_bird_10_n02027492_4357.JPEG
cornet-s,7,626,NaN,bear,bird,0.10,8306_nse_dnn_0.10_bird_10_n01820546_219.JPEG
cornet-s,7,627,NaN,bear,bird,0.10,8307_nse_dnn_0.10_bird_10_n01833805_12067.JPEG
cornet-s,7,628,NaN,clock,bird,0.10,8308_nse_dnn_0.10_bird_10_n01582220_6453.JPEG
cornet-s,7,629,NaN,bear,bird,0.10,8309_nse_dnn_0.10_bird_10_n01819313_5574.JPEG
cornet-s,7,630,NaN,clock,bird,0.10,8310_nse_dnn_0.10_bird_10_n01537544_9540.JPEG
cornet-s,7,631,NaN,dog,dog,0.10,8311_nse_dnn_0.10_dog_10_n02109961_71988.JPEG
cornet-s,7,632,NaN,clock,dog,0.10,8312_nse_dnn_0.10_dog_10_n02107574_2339.JPEG
cornet-s,7,633,NaN,chair,dog,0.10,8313_nse_dnn_0.10_dog_10_n02095314_3240.JPEG
cornet-s,7,634,NaN,bear,dog,0.10,8314_nse_dnn_0.10_dog_10_n02101388_6378.JPEG
cornet-s,7,635,NaN,bicycle,dog,0.10,8315_nse_dnn_0.10_dog_10_n02111277_33705.JPEG
cornet-s,7,636,NaN,clock,dog,0.10,8316_nse_dnn_0.10_dog_10_n02110063_4983.JPEG
cornet-s,7,637,NaN,bear,dog,0.10,8317_nse_dnn_0.10_dog_10_n02095570_11497.JPEG
cornet-s,7,638,NaN,chair,dog,0.10,8318_nse_dnn_0.10_dog_10_n02113712_3562.JPEG
cornet-s,7,639,NaN,bear,dog,0.10,8319_nse_dnn_0.10_dog_10_n02091831_3797.JPEG
cornet-s,7,640,NaN,chair,dog,0.10,8320_nse_dnn_0.10_dog_10_n02100236_2429.JPEG
cornet-s,7,641,NaN,boat,knife,0.20,8321_nse_dnn_0.20_knife_10_n03041632_37274.JPEG
cornet-s,7,642,NaN,chair,knife,0.20,8322_nse_dnn_0.20_knife_10_n03041632_16206.JPEG
cornet-s,7,643,NaN,chair,knife,0.20,8323_nse_dnn_0.20_knife_10_n03041632_93026.JPEG
cornet-s,7,644,NaN,chair,knife,0.20,8324_nse_dnn_0.20_knife_10_n03041632_26053.JPEG
cornet-s,7,645,NaN,clock,knife,0.20,8325_nse_dnn_0.20_knife_10_n03041632_27709.JPEG
cornet-s,7,646,NaN,bear,knife,0.20,8326_nse_dnn_0.20_knife_10_n03041632_22051.JPEG
cornet-s,7,647,NaN,chair,knife,0.20,8327_nse_dnn_0.20_knife_10_n03041632_29285.JPEG
cornet-s,7,648,NaN,bottle,knife,0.20,8328_nse_dnn_0.20_knife_10_n03041632_20517.JPEG
cornet-s,7,649,NaN,chair,knife,0.20,8329_nse_dnn_0.20_knife_10_n03041632_18748.JPEG
cornet-s,7,650,NaN,chair,knife,0.20,8330_nse_dnn_0.20_knife_10_n03041632_96714.JPEG
cornet-s,7,651,NaN,chair,keyboard,0.20,8331_nse_dnn_0.20_keyboard_10_n04505470_3825.JPEG
cornet-s,7,652,NaN,chair,keyboard,0.20,8332_nse_dnn_0.20_keyboard_10_n04505470_850.JPEG
cornet-s,7,653,NaN,bottle,keyboard,0.20,8333_nse_dnn_0.20_keyboard_10_n04505470_5157.JPEG
cornet-s,7,654,NaN,clock,keyboard,0.20,8334_nse_dnn_0.20_keyboard_10_n04505470_1518.JPEG
cornet-s,7,655,NaN,keyboard,keyboard,0.20,8335_nse_dnn_0.20_keyboard_10_n03085013_23764.JPEG
cornet-s,7,656,NaN,clock,keyboard,0.20,8336_nse_dnn_0.20_keyboard_10_n04505470_5021.JPEG
cornet-s,7,657,NaN,clock,keyboard,0.20,8337_nse_dnn_0.20_keyboard_10_n03085013_2464.JPEG
cornet-s,7,658,NaN,boat,keyboard,0.20,8338_nse_dnn_0.20_keyboard_10_n03085013_22744.JPEG
cornet-s,7,659,NaN,clock,keyboard,0.20,8339_nse_dnn_0.20_keyboard_10_n03085013_20996.JPEG
cornet-s,7,660,NaN,cat,keyboard,0.20,8340_nse_dnn_0.20_keyboard_10_n04505470_2113.JPEG
cornet-s,7,661,NaN,clock,elephant,0.20,8341_nse_dnn_0.20_elephant_10_n02504013_6211.JPEG
cornet-s,7,662,NaN,bicycle,elephant,0.20,8342_nse_dnn_0.20_elephant_10_n02504013_6257.JPEG
cornet-s,7,663,NaN,chair,elephant,0.20,8343_nse_dnn_0.20_elephant_10_n02504458_10188.JPEG
cornet-s,7,664,NaN,chair,elephant,0.20,8344_nse_dnn_0.20_elephant_10_n02504458_7805.JPEG
cornet-s,7,665,NaN,boat,elephant,0.20,8345_nse_dnn_0.20_elephant_10_n02504013_7218.JPEG
cornet-s,7,666,NaN,clock,elephant,0.20,8346_nse_dnn_0.20_elephant_10_n02504013_218.JPEG
cornet-s,7,667,NaN,cat,elephant,0.20,8347_nse_dnn_0.20_elephant_10_n02504013_2830.JPEG
cornet-s,7,668,NaN,chair,elephant,0.20,8348_nse_dnn_0.20_elephant_10_n02504458_4981.JPEG
cornet-s,7,669,NaN,boat,elephant,0.20,8349_nse_dnn_0.20_elephant_10_n02504458_5853.JPEG
cornet-s,7,670,NaN,bear,elephant,0.20,8350_nse_dnn_0.20_elephant_10_n02504013_7777.JPEG
cornet-s,7,671,NaN,elephant,bicycle,0.20,8351_nse_dnn_0.20_bicycle_10_n03792782_636.JPEG
cornet-s,7,672,NaN,clock,bicycle,0.20,8352_nse_dnn_0.20_bicycle_10_n02835271_16580.JPEG
cornet-s,7,673,NaN,boat,bicycle,0.20,8353_nse_dnn_0.20_bicycle_10_n02835271_8694.JPEG
cornet-s,7,674,NaN,chair,bicycle,0.20,8354_nse_dnn_0.20_bicycle_10_n03792782_13835.JPEG
cornet-s,7,675,NaN,clock,bicycle,0.20,8355_nse_dnn_0.20_bicycle_10_n03792782_3730.JPEG
cornet-s,7,676,NaN,bottle,bicycle,0.20,8356_nse_dnn_0.20_bicycle_10_n02835271_5152.JPEG
cornet-s,7,677,NaN,chair,bicycle,0.20,8357_nse_dnn_0.20_bicycle_10_n02835271_1889.JPEG
cornet-s,7,678,NaN,clock,bicycle,0.20,8358_nse_dnn_0.20_bicycle_10_n03792782_435.JPEG
cornet-s,7,679,NaN,clock,bicycle,0.20,8359_nse_dnn_0.20_bicycle_10_n03792782_44390.JPEG
cornet-s,7,680,NaN,clock,bicycle,0.20,8360_nse_dnn_0.20_bicycle_10_n03792782_4246.JPEG
cornet-s,7,681,NaN,chair,airplane,0.20,8361_nse_dnn_0.20_airplane_10_n02690373_6200.JPEG
cornet-s,7,682,NaN,clock,airplane,0.20,8362_nse_dnn_0.20_airplane_10_n02690373_20071.JPEG
cornet-s,7,683,NaN,chair,airplane,0.20,8363_nse_dnn_0.20_airplane_10_n02690373_8611.JPEG
cornet-s,7,684,NaN,clock,airplane,0.20,8364_nse_dnn_0.20_airplane_10_n02690373_8925.JPEG
cornet-s,7,685,NaN,chair,airplane,0.20,8365_nse_dnn_0.20_airplane_10_n02690373_10449.JPEG
cornet-s,7,686,NaN,boat,airplane,0.20,8366_nse_dnn_0.20_airplane_10_n02690373_60.JPEG
cornet-s,7,687,NaN,boat,airplane,0.20,8367_nse_dnn_0.20_airplane_10_n02690373_17063.JPEG
cornet-s,7,688,NaN,chair,airplane,0.20,8368_nse_dnn_0.20_airplane_10_n02690373_18848.JPEG
cornet-s,7,689,NaN,knife,airplane,0.20,8369_nse_dnn_0.20_airplane_10_n02690373_5010.JPEG
cornet-s,7,690,NaN,knife,airplane,0.20,8370_nse_dnn_0.20_airplane_10_n02690373_5789.JPEG
cornet-s,7,691,NaN,clock,clock,0.20,8371_nse_dnn_0.20_clock_10_n03196217_3943.JPEG
cornet-s,7,692,NaN,knife,clock,0.20,8372_nse_dnn_0.20_clock_10_n03196217_1244.JPEG
cornet-s,7,693,NaN,clock,clock,0.20,8373_nse_dnn_0.20_clock_10_n02708093_2082.JPEG
cornet-s,7,694,NaN,knife,clock,0.20,8374_nse_dnn_0.20_clock_10_n03196217_3039.JPEG
cornet-s,7,695,NaN,chair,clock,0.20,8375_nse_dnn_0.20_clock_10_n02708093_2823.JPEG
cornet-s,7,696,NaN,bear,clock,0.20,8376_nse_dnn_0.20_clock_10_n04548280_13750.JPEG
cornet-s,7,697,NaN,clock,clock,0.20,8377_nse_dnn_0.20_clock_10_n02708093_1119.JPEG
cornet-s,7,698,NaN,clock,clock,0.20,8378_nse_dnn_0.20_clock_10_n04548280_3216.JPEG
cornet-s,7,699,NaN,clock,clock,0.20,8379_nse_dnn_0.20_clock_10_n04548280_6811.JPEG
cornet-s,7,700,NaN,car,clock,0.20,8380_nse_dnn_0.20_clock_10_n02708093_32.JPEG
cornet-s,7,701,NaN,elephant,oven,0.20,8381_nse_dnn_0.20_oven_10_n04111531_7469.JPEG
cornet-s,7,702,NaN,knife,oven,0.20,8382_nse_dnn_0.20_oven_10_n04111531_17433.JPEG
cornet-s,7,703,NaN,elephant,oven,0.20,8383_nse_dnn_0.20_oven_10_n04111531_804.JPEG
cornet-s,7,704,NaN,chair,oven,0.20,8384_nse_dnn_0.20_oven_10_n04111531_1002.JPEG
cornet-s,7,705,NaN,chair,oven,0.20,8385_nse_dnn_0.20_oven_10_n04111531_3575.JPEG
cornet-s,7,706,NaN,bottle,oven,0.20,8386_nse_dnn_0.20_oven_10_n04111531_1826.JPEG
cornet-s,7,707,NaN,chair,oven,0.20,8387_nse_dnn_0.20_oven_10_n04111531_18979.JPEG
cornet-s,7,708,NaN,chair,oven,0.20,8388_nse_dnn_0.20_oven_10_n04111531_12729.JPEG
cornet-s,7,709,NaN,cat,oven,0.20,8389_nse_dnn_0.20_oven_10_n04111531_5781.JPEG
cornet-s,7,710,NaN,cat,oven,0.20,8390_nse_dnn_0.20_oven_10_n04111531_8868.JPEG
cornet-s,7,711,NaN,chair,chair,0.20,8391_nse_dnn_0.20_chair_10_n03376595_3698.JPEG
cornet-s,7,712,NaN,knife,chair,0.20,8392_nse_dnn_0.20_chair_10_n04429376_17171.JPEG
cornet-s,7,713,NaN,bear,chair,0.20,8393_nse_dnn_0.20_chair_10_n04429376_20358.JPEG
cornet-s,7,714,NaN,clock,chair,0.20,8394_nse_dnn_0.20_chair_10_n02791124_8954.JPEG
cornet-s,7,715,NaN,knife,chair,0.20,8395_nse_dnn_0.20_chair_10_n02791124_2571.JPEG
cornet-s,7,716,NaN,chair,chair,0.20,8396_nse_dnn_0.20_chair_10_n04099969_451.JPEG
cornet-s,7,717,NaN,chair,chair,0.20,8397_nse_dnn_0.20_chair_10_n02791124_4559.JPEG
cornet-s,7,718,NaN,bear,chair,0.20,8398_nse_dnn_0.20_chair_10_n04429376_4254.JPEG
cornet-s,7,719,NaN,chair,chair,0.20,8399_nse_dnn_0.20_chair_10_n03376595_18546.JPEG
cornet-s,7,720,NaN,clock,chair,0.20,8400_nse_dnn_0.20_chair_10_n04099969_10974.JPEG
cornet-s,7,721,NaN,chair,bear,0.20,8401_nse_dnn_0.20_bear_10_n02134084_617.JPEG
cornet-s,7,722,NaN,chair,bear,0.20,8402_nse_dnn_0.20_bear_10_n02134084_581.JPEG
cornet-s,7,723,NaN,clock,bear,0.20,8403_nse_dnn_0.20_bear_10_n02134084_7595.JPEG
cornet-s,7,724,NaN,cat,bear,0.20,8404_nse_dnn_0.20_bear_10_n02134418_4999.JPEG
cornet-s,7,725,NaN,cat,bear,0.20,8405_nse_dnn_0.20_bear_10_n02134418_514.JPEG
cornet-s,7,726,NaN,clock,bear,0.20,8406_nse_dnn_0.20_bear_10_n02132136_26360.JPEG
cornet-s,7,727,NaN,cat,bear,0.20,8407_nse_dnn_0.20_bear_10_n02132136_25897.JPEG
cornet-s,7,728,NaN,chair,bear,0.20,8408_nse_dnn_0.20_bear_10_n02134084_19049.JPEG
cornet-s,7,729,NaN,chair,bear,0.20,8409_nse_dnn_0.20_bear_10_n02134084_416.JPEG
cornet-s,7,730,NaN,cat,bear,0.20,8410_nse_dnn_0.20_bear_10_n02134084_6806.JPEG
cornet-s,7,731,NaN,clock,boat,0.20,8411_nse_dnn_0.20_boat_10_n04612504_3286.JPEG
cornet-s,7,732,NaN,boat,boat,0.20,8412_nse_dnn_0.20_boat_10_n03662601_947.JPEG
cornet-s,7,733,NaN,clock,boat,0.20,8413_nse_dnn_0.20_boat_10_n03344393_2785.JPEG
cornet-s,7,734,NaN,chair,boat,0.20,8414_nse_dnn_0.20_boat_10_n04273569_531.JPEG
cornet-s,7,735,NaN,chair,boat,0.20,8415_nse_dnn_0.20_boat_10_n03662601_8744.JPEG
cornet-s,7,736,NaN,chair,boat,0.20,8416_nse_dnn_0.20_boat_10_n04273569_4670.JPEG
cornet-s,7,737,NaN,car,boat,0.20,8417_nse_dnn_0.20_boat_10_n04273569_1233.JPEG
cornet-s,7,738,NaN,chair,boat,0.20,8418_nse_dnn_0.20_boat_10_n03344393_4558.JPEG
cornet-s,7,739,NaN,clock,boat,0.20,8419_nse_dnn_0.20_boat_10_n02951358_13306.JPEG
cornet-s,7,740,NaN,bear,boat,0.20,8420_nse_dnn_0.20_boat_10_n02951358_30670.JPEG
cornet-s,7,741,NaN,boat,cat,0.20,8421_nse_dnn_0.20_cat_10_n02124075_2854.JPEG
cornet-s,7,742,NaN,chair,cat,0.20,8422_nse_dnn_0.20_cat_10_n02124075_2293.JPEG
cornet-s,7,743,NaN,cat,cat,0.20,8423_nse_dnn_0.20_cat_10_n02123394_652.JPEG
cornet-s,7,744,NaN,chair,cat,0.20,8424_nse_dnn_0.20_cat_10_n02125311_36864.JPEG
cornet-s,7,745,NaN,chair,cat,0.20,8425_nse_dnn_0.20_cat_10_n02123394_693.JPEG
cornet-s,7,746,NaN,clock,cat,0.20,8426_nse_dnn_0.20_cat_10_n02123394_2540.JPEG
cornet-s,7,747,NaN,clock,cat,0.20,8427_nse_dnn_0.20_cat_10_n02123394_4721.JPEG
cornet-s,7,748,NaN,cat,cat,0.20,8428_nse_dnn_0.20_cat_10_n02123597_3398.JPEG
cornet-s,7,749,NaN,chair,cat,0.20,8429_nse_dnn_0.20_cat_10_n02123597_12554.JPEG
cornet-s,7,750,NaN,chair,cat,0.20,8430_nse_dnn_0.20_cat_10_n02123394_4442.JPEG
cornet-s,7,751,NaN,chair,bottle,0.20,8431_nse_dnn_0.20_bottle_10_n03937543_10212.JPEG
cornet-s,7,752,NaN,chair,bottle,0.20,8432_nse_dnn_0.20_bottle_10_n03937543_7299.JPEG
cornet-s,7,753,NaN,boat,bottle,0.20,8433_nse_dnn_0.20_bottle_10_n03937543_1425.JPEG
cornet-s,7,754,NaN,clock,bottle,0.20,8434_nse_dnn_0.20_bottle_10_n04560804_15092.JPEG
cornet-s,7,755,NaN,bottle,bottle,0.20,8435_nse_dnn_0.20_bottle_10_n02823428_2513.JPEG
cornet-s,7,756,NaN,clock,bottle,0.20,8436_nse_dnn_0.20_bottle_10_n04557648_4539.JPEG
cornet-s,7,757,NaN,knife,bottle,0.20,8437_nse_dnn_0.20_bottle_10_n03983396_8311.JPEG
cornet-s,7,758,NaN,chair,bottle,0.20,8438_nse_dnn_0.20_bottle_10_n03983396_5386.JPEG
cornet-s,7,759,NaN,chair,bottle,0.20,8439_nse_dnn_0.20_bottle_10_n02823428_4328.JPEG
cornet-s,7,760,NaN,elephant,bottle,0.20,8440_nse_dnn_0.20_bottle_10_n04591713_5476.JPEG
cornet-s,7,761,NaN,clock,truck,0.20,8441_nse_dnn_0.20_truck_10_n03417042_15124.JPEG
cornet-s,7,762,NaN,boat,truck,0.20,8442_nse_dnn_0.20_truck_10_n04467665_33256.JPEG
cornet-s,7,763,NaN,chair,truck,0.20,8443_nse_dnn_0.20_truck_10_n03417042_5236.JPEG
cornet-s,7,764,NaN,chair,truck,0.20,8444_nse_dnn_0.20_truck_10_n04467665_22217.JPEG
cornet-s,7,765,NaN,chair,truck,0.20,8445_nse_dnn_0.20_truck_10_n03796401_407.JPEG
cornet-s,7,766,NaN,chair,truck,0.20,8446_nse_dnn_0.20_truck_10_n03417042_3390.JPEG
cornet-s,7,767,NaN,keyboard,truck,0.20,8447_nse_dnn_0.20_truck_10_n03796401_6727.JPEG
cornet-s,7,768,NaN,chair,truck,0.20,8448_nse_dnn_0.20_truck_10_n04467665_22358.JPEG
cornet-s,7,769,NaN,chair,truck,0.20,8449_nse_dnn_0.20_truck_10_n03417042_10331.JPEG
cornet-s,7,770,NaN,chair,truck,0.20,8450_nse_dnn_0.20_truck_10_n03417042_3821.JPEG
cornet-s,7,771,NaN,chair,car,0.20,8451_nse_dnn_0.20_car_10_n02814533_45594.JPEG
cornet-s,7,772,NaN,bottle,car,0.20,8452_nse_dnn_0.20_car_10_n04285008_1124.JPEG
cornet-s,7,773,NaN,truck,car,0.20,8453_nse_dnn_0.20_car_10_n02814533_57972.JPEG
cornet-s,7,774,NaN,car,car,0.20,8454_nse_dnn_0.20_car_10_n04285008_11390.JPEG
cornet-s,7,775,NaN,boat,car,0.20,8455_nse_dnn_0.20_car_10_n04285008_6901.JPEG
cornet-s,7,776,NaN,boat,car,0.20,8456_nse_dnn_0.20_car_10_n03100240_6799.JPEG
cornet-s,7,777,NaN,knife,car,0.20,8457_nse_dnn_0.20_car_10_n02814533_479.JPEG
cornet-s,7,778,NaN,clock,car,0.20,8458_nse_dnn_0.20_car_10_n03100240_735.JPEG
cornet-s,7,779,NaN,chair,car,0.20,8459_nse_dnn_0.20_car_10_n02814533_74986.JPEG
cornet-s,7,780,NaN,chair,car,0.20,8460_nse_dnn_0.20_car_10_n02814533_43478.JPEG
cornet-s,7,781,NaN,elephant,bird,0.20,8461_nse_dnn_0.20_bird_10_n01855672_3122.JPEG
cornet-s,7,782,NaN,chair,bird,0.20,8462_nse_dnn_0.20_bird_10_n02009229_5779.JPEG
cornet-s,7,783,NaN,clock,bird,0.20,8463_nse_dnn_0.20_bird_10_n01537544_3857.JPEG
cornet-s,7,784,NaN,boat,bird,0.20,8464_nse_dnn_0.20_bird_10_n01795545_3646.JPEG
cornet-s,7,785,NaN,chair,bird,0.20,8465_nse_dnn_0.20_bird_10_n01537544_21665.JPEG
cornet-s,7,786,NaN,chair,bird,0.20,8466_nse_dnn_0.20_bird_10_n01514859_679.JPEG
cornet-s,7,787,NaN,chair,bird,0.20,8467_nse_dnn_0.20_bird_10_n02013706_10556.JPEG
cornet-s,7,788,NaN,chair,bird,0.20,8468_nse_dnn_0.20_bird_10_n02018795_6614.JPEG
cornet-s,7,789,NaN,clock,bird,0.20,8469_nse_dnn_0.20_bird_10_n02017213_7630.JPEG
cornet-s,7,790,NaN,boat,bird,0.20,8470_nse_dnn_0.20_bird_10_n01592084_7728.JPEG
cornet-s,7,791,NaN,chair,dog,0.20,8471_nse_dnn_0.20_dog_10_n02107312_7128.JPEG
cornet-s,7,792,NaN,boat,dog,0.20,8472_nse_dnn_0.20_dog_10_n02092339_4538.JPEG
cornet-s,7,793,NaN,boat,dog,0.20,8473_nse_dnn_0.20_dog_10_n02101006_6957.JPEG
cornet-s,7,794,NaN,clock,dog,0.20,8474_nse_dnn_0.20_dog_10_n02085936_10548.JPEG
cornet-s,7,795,NaN,bear,dog,0.20,8475_nse_dnn_0.20_dog_10_n02102480_7676.JPEG
cornet-s,7,796,NaN,chair,dog,0.20,8476_nse_dnn_0.20_dog_10_n02091032_11248.JPEG
cornet-s,7,797,NaN,chair,dog,0.20,8477_nse_dnn_0.20_dog_10_n02106382_236.JPEG
cornet-s,7,798,NaN,bear,dog,0.20,8478_nse_dnn_0.20_dog_10_n02113624_9759.JPEG
cornet-s,7,799,NaN,chair,dog,0.20,8479_nse_dnn_0.20_dog_10_n02086910_328.JPEG
cornet-s,7,800,NaN,cat,dog,0.20,8480_nse_dnn_0.20_dog_10_n02106030_6103.JPEG
cornet-s,7,801,NaN,bottle,knife,0.35,8481_nse_dnn_0.35_knife_10_n03041632_43975.JPEG
cornet-s,7,802,NaN,bottle,knife,0.35,8482_nse_dnn_0.35_knife_10_n03041632_8563.JPEG
cornet-s,7,803,NaN,bottle,knife,0.35,8483_nse_dnn_0.35_knife_10_n03041632_11773.JPEG
cornet-s,7,804,NaN,clock,knife,0.35,8484_nse_dnn_0.35_knife_10_n03041632_29355.JPEG
cornet-s,7,805,NaN,clock,knife,0.35,8485_nse_dnn_0.35_knife_10_n03041632_56436.JPEG
cornet-s,7,806,NaN,clock,knife,0.35,8486_nse_dnn_0.35_knife_10_n03041632_23803.JPEG
cornet-s,7,807,NaN,clock,knife,0.35,8487_nse_dnn_0.35_knife_10_n03041632_38610.JPEG
cornet-s,7,808,NaN,bottle,knife,0.35,8488_nse_dnn_0.35_knife_10_n03041632_24181.JPEG
cornet-s,7,809,NaN,clock,knife,0.35,8489_nse_dnn_0.35_knife_10_n03041632_24326.JPEG
cornet-s,7,810,NaN,knife,knife,0.35,8490_nse_dnn_0.35_knife_10_n03041632_47743.JPEG
cornet-s,7,811,NaN,clock,keyboard,0.35,8491_nse_dnn_0.35_keyboard_10_n03085013_19707.JPEG
cornet-s,7,812,NaN,knife,keyboard,0.35,8492_nse_dnn_0.35_keyboard_10_n04505470_3481.JPEG
cornet-s,7,813,NaN,cat,keyboard,0.35,8493_nse_dnn_0.35_keyboard_10_n03085013_13083.JPEG
cornet-s,7,814,NaN,clock,keyboard,0.35,8494_nse_dnn_0.35_keyboard_10_n03085013_21243.JPEG
cornet-s,7,815,NaN,bottle,keyboard,0.35,8495_nse_dnn_0.35_keyboard_10_n04505470_2481.JPEG
cornet-s,7,816,NaN,clock,keyboard,0.35,8496_nse_dnn_0.35_keyboard_10_n04505470_7721.JPEG
cornet-s,7,817,NaN,chair,keyboard,0.35,8497_nse_dnn_0.35_keyboard_10_n03085013_20495.JPEG
cornet-s,7,818,NaN,bottle,keyboard,0.35,8498_nse_dnn_0.35_keyboard_10_n03085013_23800.JPEG
cornet-s,7,819,NaN,cat,keyboard,0.35,8499_nse_dnn_0.35_keyboard_10_n03085013_19497.JPEG
cornet-s,7,820,NaN,clock,keyboard,0.35,8500_nse_dnn_0.35_keyboard_10_n03085013_22686.JPEG
cornet-s,7,821,NaN,bottle,elephant,0.35,8501_nse_dnn_0.35_elephant_10_n02504458_62.JPEG
cornet-s,7,822,NaN,clock,elephant,0.35,8502_nse_dnn_0.35_elephant_10_n02504013_4673.JPEG
cornet-s,7,823,NaN,bottle,elephant,0.35,8503_nse_dnn_0.35_elephant_10_n02504013_846.JPEG
cornet-s,7,824,NaN,clock,elephant,0.35,8504_nse_dnn_0.35_elephant_10_n02504458_10439.JPEG
cornet-s,7,825,NaN,bottle,elephant,0.35,8505_nse_dnn_0.35_elephant_10_n02504013_8930.JPEG
cornet-s,7,826,NaN,clock,elephant,0.35,8506_nse_dnn_0.35_elephant_10_n02504013_8507.JPEG
cornet-s,7,827,NaN,bottle,elephant,0.35,8507_nse_dnn_0.35_elephant_10_n02504013_784.JPEG
cornet-s,7,828,NaN,bottle,elephant,0.35,8508_nse_dnn_0.35_elephant_10_n02504013_9012.JPEG
cornet-s,7,829,NaN,bear,elephant,0.35,8509_nse_dnn_0.35_elephant_10_n02504458_2685.JPEG
cornet-s,7,830,NaN,bottle,elephant,0.35,8510_nse_dnn_0.35_elephant_10_n02504458_4763.JPEG
cornet-s,7,831,NaN,bottle,bicycle,0.35,8511_nse_dnn_0.35_bicycle_10_n03792782_15427.JPEG
cornet-s,7,832,NaN,clock,bicycle,0.35,8512_nse_dnn_0.35_bicycle_10_n03792782_3759.JPEG
cornet-s,7,833,NaN,clock,bicycle,0.35,8513_nse_dnn_0.35_bicycle_10_n03792782_891.JPEG
cornet-s,7,834,NaN,bottle,bicycle,0.35,8514_nse_dnn_0.35_bicycle_10_n03792782_5901.JPEG
cornet-s,7,835,NaN,clock,bicycle,0.35,8515_nse_dnn_0.35_bicycle_10_n03792782_5044.JPEG
cornet-s,7,836,NaN,bottle,bicycle,0.35,8516_nse_dnn_0.35_bicycle_10_n02835271_25649.JPEG
cornet-s,7,837,NaN,cat,bicycle,0.35,8517_nse_dnn_0.35_bicycle_10_n02835271_13489.JPEG
cornet-s,7,838,NaN,cat,bicycle,0.35,8518_nse_dnn_0.35_bicycle_10_n02835271_19865.JPEG
cornet-s,7,839,NaN,bottle,bicycle,0.35,8519_nse_dnn_0.35_bicycle_10_n02835271_3570.JPEG
cornet-s,7,840,NaN,bottle,bicycle,0.35,8520_nse_dnn_0.35_bicycle_10_n03792782_4704.JPEG
cornet-s,7,841,NaN,clock,airplane,0.35,8521_nse_dnn_0.35_airplane_10_n02690373_3620.JPEG
cornet-s,7,842,NaN,clock,airplane,0.35,8522_nse_dnn_0.35_airplane_10_n02690373_6406.JPEG
cornet-s,7,843,NaN,bottle,airplane,0.35,8523_nse_dnn_0.35_airplane_10_n02690373_4269.JPEG
cornet-s,7,844,NaN,clock,airplane,0.35,8524_nse_dnn_0.35_airplane_10_n02690373_9626.JPEG
cornet-s,7,845,NaN,knife,airplane,0.35,8525_nse_dnn_0.35_airplane_10_n02690373_13324.JPEG
cornet-s,7,846,NaN,bottle,airplane,0.35,8526_nse_dnn_0.35_airplane_10_n02690373_5016.JPEG
cornet-s,7,847,NaN,chair,airplane,0.35,8527_nse_dnn_0.35_airplane_10_n02690373_18295.JPEG
cornet-s,7,848,NaN,clock,airplane,0.35,8528_nse_dnn_0.35_airplane_10_n02690373_19407.JPEG
cornet-s,7,849,NaN,clock,airplane,0.35,8529_nse_dnn_0.35_airplane_10_n02690373_2162.JPEG
cornet-s,7,850,NaN,bottle,airplane,0.35,8530_nse_dnn_0.35_airplane_10_n02690373_4070.JPEG
cornet-s,7,851,NaN,clock,clock,0.35,8531_nse_dnn_0.35_clock_10_n03196217_2271.JPEG
cornet-s,7,852,NaN,clock,clock,0.35,8532_nse_dnn_0.35_clock_10_n04548280_8892.JPEG
cornet-s,7,853,NaN,cat,clock,0.35,8533_nse_dnn_0.35_clock_10_n04548280_7813.JPEG
cornet-s,7,854,NaN,bottle,clock,0.35,8534_nse_dnn_0.35_clock_10_n04548280_2601.JPEG
cornet-s,7,855,NaN,clock,clock,0.35,8535_nse_dnn_0.35_clock_10_n04548280_17.JPEG
cornet-s,7,856,NaN,clock,clock,0.35,8536_nse_dnn_0.35_clock_10_n02708093_2006.JPEG
cornet-s,7,857,NaN,bottle,clock,0.35,8537_nse_dnn_0.35_clock_10_n02708093_1747.JPEG
cornet-s,7,858,NaN,clock,clock,0.35,8538_nse_dnn_0.35_clock_10_n04548280_2765.JPEG
cornet-s,7,859,NaN,bottle,clock,0.35,8539_nse_dnn_0.35_clock_10_n04548280_2589.JPEG
cornet-s,7,860,NaN,elephant,clock,0.35,8540_nse_dnn_0.35_clock_10_n02708093_5944.JPEG
cornet-s,7,861,NaN,clock,oven,0.35,8541_nse_dnn_0.35_oven_10_n04111531_21232.JPEG
cornet-s,7,862,NaN,bottle,oven,0.35,8542_nse_dnn_0.35_oven_10_n04111531_9344.JPEG
cornet-s,7,863,NaN,clock,oven,0.35,8543_nse_dnn_0.35_oven_10_n04111531_22097.JPEG
cornet-s,7,864,NaN,clock,oven,0.35,8544_nse_dnn_0.35_oven_10_n04111531_18154.JPEG
cornet-s,7,865,NaN,bottle,oven,0.35,8545_nse_dnn_0.35_oven_10_n04111531_3611.JPEG
cornet-s,7,866,NaN,chair,oven,0.35,8546_nse_dnn_0.35_oven_10_n04111531_9041.JPEG
cornet-s,7,867,NaN,bottle,oven,0.35,8547_nse_dnn_0.35_oven_10_n04111531_2371.JPEG
cornet-s,7,868,NaN,cat,oven,0.35,8548_nse_dnn_0.35_oven_10_n04111531_4012.JPEG
cornet-s,7,869,NaN,bottle,oven,0.35,8549_nse_dnn_0.35_oven_10_n04111531_1750.JPEG
cornet-s,7,870,NaN,bottle,oven,0.35,8550_nse_dnn_0.35_oven_10_n04111531_21918.JPEG
cornet-s,7,871,NaN,clock,chair,0.35,8551_nse_dnn_0.35_chair_10_n02791124_2319.JPEG
cornet-s,7,872,NaN,clock,chair,0.35,8552_nse_dnn_0.35_chair_10_n04429376_14186.JPEG
cornet-s,7,873,NaN,bottle,chair,0.35,8553_nse_dnn_0.35_chair_10_n02791124_16100.JPEG
cornet-s,7,874,NaN,bottle,chair,0.35,8554_nse_dnn_0.35_chair_10_n04429376_14072.JPEG
cornet-s,7,875,NaN,bottle,chair,0.35,8555_nse_dnn_0.35_chair_10_n04429376_6272.JPEG
cornet-s,7,876,NaN,clock,chair,0.35,8556_nse_dnn_0.35_chair_10_n03376595_5876.JPEG
cornet-s,7,877,NaN,bottle,chair,0.35,8557_nse_dnn_0.35_chair_10_n04429376_619.JPEG
cornet-s,7,878,NaN,clock,chair,0.35,8558_nse_dnn_0.35_chair_10_n04099969_13789.JPEG
cornet-s,7,879,NaN,bottle,chair,0.35,8559_nse_dnn_0.35_chair_10_n04099969_12574.JPEG
cornet-s,7,880,NaN,clock,chair,0.35,8560_nse_dnn_0.35_chair_10_n03376595_3062.JPEG
cornet-s,7,881,NaN,bottle,bear,0.35,8561_nse_dnn_0.35_bear_10_n02134418_12733.JPEG
cornet-s,7,882,NaN,bottle,bear,0.35,8562_nse_dnn_0.35_bear_10_n02134418_638.JPEG
cornet-s,7,883,NaN,clock,bear,0.35,8563_nse_dnn_0.35_bear_10_n02132136_24595.JPEG
cornet-s,7,884,NaN,clock,bear,0.35,8564_nse_dnn_0.35_bear_10_n02132136_129.JPEG
cornet-s,7,885,NaN,knife,bear,0.35,8565_nse_dnn_0.35_bear_10_n02134418_2886.JPEG
cornet-s,7,886,NaN,clock,bear,0.35,8566_nse_dnn_0.35_bear_10_n02134084_16632.JPEG
cornet-s,7,887,NaN,chair,bear,0.35,8567_nse_dnn_0.35_bear_10_n02134084_17572.JPEG
cornet-s,7,888,NaN,clock,bear,0.35,8568_nse_dnn_0.35_bear_10_n02134418_938.JPEG
cornet-s,7,889,NaN,bottle,bear,0.35,8569_nse_dnn_0.35_bear_10_n02134418_5119.JPEG
cornet-s,7,890,NaN,clock,bear,0.35,8570_nse_dnn_0.35_bear_10_n02132136_2677.JPEG
cornet-s,7,891,NaN,bottle,boat,0.35,8571_nse_dnn_0.35_boat_10_n02951358_5710.JPEG
cornet-s,7,892,NaN,bottle,boat,0.35,8572_nse_dnn_0.35_boat_10_n03344393_931.JPEG
cornet-s,7,893,NaN,clock,boat,0.35,8573_nse_dnn_0.35_boat_10_n03344393_1595.JPEG
cornet-s,7,894,NaN,bottle,boat,0.35,8574_nse_dnn_0.35_boat_10_n04612504_3904.JPEG
cornet-s,7,895,NaN,clock,boat,0.35,8575_nse_dnn_0.35_boat_10_n02951358_10666.JPEG
cornet-s,7,896,NaN,chair,boat,0.35,8576_nse_dnn_0.35_boat_10_n03662601_1542.JPEG
cornet-s,7,897,NaN,clock,boat,0.35,8577_nse_dnn_0.35_boat_10_n04273569_18041.JPEG
cornet-s,7,898,NaN,clock,boat,0.35,8578_nse_dnn_0.35_boat_10_n04273569_1622.JPEG
cornet-s,7,899,NaN,clock,boat,0.35,8579_nse_dnn_0.35_boat_10_n04273569_9247.JPEG
cornet-s,7,900,NaN,clock,boat,0.35,8580_nse_dnn_0.35_boat_10_n04273569_16692.JPEG
cornet-s,7,901,NaN,clock,cat,0.35,8581_nse_dnn_0.35_cat_10_n02123597_11202.JPEG
cornet-s,7,902,NaN,bottle,cat,0.35,8582_nse_dnn_0.35_cat_10_n02123394_3872.JPEG
cornet-s,7,903,NaN,bottle,cat,0.35,8583_nse_dnn_0.35_cat_10_n02123045_8088.JPEG
cornet-s,7,904,NaN,clock,cat,0.35,8584_nse_dnn_0.35_cat_10_n02123597_4671.JPEG
cornet-s,7,905,NaN,clock,cat,0.35,8585_nse_dnn_0.35_cat_10_n02125311_32650.JPEG
cornet-s,7,906,NaN,clock,cat,0.35,8586_nse_dnn_0.35_cat_10_n02123159_5429.JPEG
cornet-s,7,907,NaN,bottle,cat,0.35,8587_nse_dnn_0.35_cat_10_n02125311_6678.JPEG
cornet-s,7,908,NaN,bottle,cat,0.35,8588_nse_dnn_0.35_cat_10_n02123159_4660.JPEG
cornet-s,7,909,NaN,bottle,cat,0.35,8589_nse_dnn_0.35_cat_10_n02123597_95.JPEG
cornet-s,7,910,NaN,clock,cat,0.35,8590_nse_dnn_0.35_cat_10_n02123394_6869.JPEG
cornet-s,7,911,NaN,bottle,bottle,0.35,8591_nse_dnn_0.35_bottle_10_n03983396_1758.JPEG
cornet-s,7,912,NaN,bottle,bottle,0.35,8592_nse_dnn_0.35_bottle_10_n04591713_4057.JPEG
cornet-s,7,913,NaN,bottle,bottle,0.35,8593_nse_dnn_0.35_bottle_10_n02823428_86.JPEG
cornet-s,7,914,NaN,bottle,bottle,0.35,8594_nse_dnn_0.35_bottle_10_n04591713_5714.JPEG
cornet-s,7,915,NaN,bottle,bottle,0.35,8595_nse_dnn_0.35_bottle_10_n02823428_738.JPEG
cornet-s,7,916,NaN,bottle,bottle,0.35,8596_nse_dnn_0.35_bottle_10_n03983396_4798.JPEG
cornet-s,7,917,NaN,clock,bottle,0.35,8597_nse_dnn_0.35_bottle_10_n04579145_2240.JPEG
cornet-s,7,918,NaN,bottle,bottle,0.35,8598_nse_dnn_0.35_bottle_10_n03983396_3804.JPEG
cornet-s,7,919,NaN,bottle,bottle,0.35,8599_nse_dnn_0.35_bottle_10_n04557648_757.JPEG
cornet-s,7,920,NaN,boat,bottle,0.35,8600_nse_dnn_0.35_bottle_10_n03983396_23971.JPEG
cornet-s,7,921,NaN,bottle,truck,0.35,8601_nse_dnn_0.35_truck_10_n03796401_2713.JPEG
cornet-s,7,922,NaN,clock,truck,0.35,8602_nse_dnn_0.35_truck_10_n03796401_1789.JPEG
cornet-s,7,923,NaN,clock,truck,0.35,8603_nse_dnn_0.35_truck_10_n03417042_8634.JPEG
cornet-s,7,924,NaN,bottle,truck,0.35,8604_nse_dnn_0.35_truck_10_n04467665_2765.JPEG
cornet-s,7,925,NaN,clock,truck,0.35,8605_nse_dnn_0.35_truck_10_n03417042_3710.JPEG
cornet-s,7,926,NaN,cat,truck,0.35,8606_nse_dnn_0.35_truck_10_n03796401_813.JPEG
cornet-s,7,927,NaN,bottle,truck,0.35,8607_nse_dnn_0.35_truck_10_n04467665_829.JPEG
cornet-s,7,928,NaN,bottle,truck,0.35,8608_nse_dnn_0.35_truck_10_n04467665_2204.JPEG
cornet-s,7,929,NaN,bottle,truck,0.35,8609_nse_dnn_0.35_truck_10_n03417042_10229.JPEG
cornet-s,7,930,NaN,bottle,truck,0.35,8610_nse_dnn_0.35_truck_10_n03417042_9511.JPEG
cornet-s,7,931,NaN,clock,car,0.35,8611_nse_dnn_0.35_car_10_n04285008_3552.JPEG
cornet-s,7,932,NaN,bottle,car,0.35,8612_nse_dnn_0.35_car_10_n04285008_5881.JPEG
cornet-s,7,933,NaN,clock,car,0.35,8613_nse_dnn_0.35_car_10_n04285008_43.JPEG
cornet-s,7,934,NaN,clock,car,0.35,8614_nse_dnn_0.35_car_10_n03100240_1107.JPEG
cornet-s,7,935,NaN,clock,car,0.35,8615_nse_dnn_0.35_car_10_n04285008_3367.JPEG
cornet-s,7,936,NaN,bottle,car,0.35,8616_nse_dnn_0.35_car_10_n02814533_312.JPEG
cornet-s,7,937,NaN,chair,car,0.35,8617_nse_dnn_0.35_car_10_n04285008_14983.JPEG
cornet-s,7,938,NaN,clock,car,0.35,8618_nse_dnn_0.35_car_10_n03100240_14390.JPEG
cornet-s,7,939,NaN,bottle,car,0.35,8619_nse_dnn_0.35_car_10_n02814533_3811.JPEG
cornet-s,7,940,NaN,bottle,car,0.35,8620_nse_dnn_0.35_car_10_n03100240_15894.JPEG
cornet-s,7,941,NaN,elephant,bird,0.35,8621_nse_dnn_0.35_bird_10_n01843065_238.JPEG
cornet-s,7,942,NaN,bottle,bird,0.35,8622_nse_dnn_0.35_bird_10_n02025239_12849.JPEG
cornet-s,7,943,NaN,bottle,bird,0.35,8623_nse_dnn_0.35_bird_10_n02018795_16285.JPEG
cornet-s,7,944,NaN,clock,bird,0.35,8624_nse_dnn_0.35_bird_10_n01824575_4954.JPEG
cornet-s,7,945,NaN,clock,bird,0.35,8625_nse_dnn_0.35_bird_10_n02009912_10231.JPEG
cornet-s,7,946,NaN,bottle,bird,0.35,8626_nse_dnn_0.35_bird_10_n01828970_10326.JPEG
cornet-s,7,947,NaN,bottle,bird,0.35,8627_nse_dnn_0.35_bird_10_n01843383_1666.JPEG
cornet-s,7,948,NaN,clock,bird,0.35,8628_nse_dnn_0.35_bird_10_n01819313_3551.JPEG
cornet-s,7,949,NaN,clock,bird,0.35,8629_nse_dnn_0.35_bird_10_n01558993_31.JPEG
cornet-s,7,950,NaN,clock,bird,0.35,8630_nse_dnn_0.35_bird_10_n01530575_4661.JPEG
cornet-s,7,951,NaN,clock,dog,0.35,8631_nse_dnn_0.35_dog_10_n02102973_8025.JPEG
cornet-s,7,952,NaN,clock,dog,0.35,8632_nse_dnn_0.35_dog_10_n02110806_4577.JPEG
cornet-s,7,953,NaN,bottle,dog,0.35,8633_nse_dnn_0.35_dog_10_n02111277_13166.JPEG
cornet-s,7,954,NaN,cat,dog,0.35,8634_nse_dnn_0.35_dog_10_n02086646_1757.JPEG
cornet-s,7,955,NaN,bottle,dog,0.35,8635_nse_dnn_0.35_dog_10_n02106662_61478.JPEG
cornet-s,7,956,NaN,bottle,dog,0.35,8636_nse_dnn_0.35_dog_10_n02093428_151.JPEG
cornet-s,7,957,NaN,bottle,dog,0.35,8637_nse_dnn_0.35_dog_10_n02093256_14215.JPEG
cornet-s,7,958,NaN,clock,dog,0.35,8638_nse_dnn_0.35_dog_10_n02108422_2804.JPEG
cornet-s,7,959,NaN,bottle,dog,0.35,8639_nse_dnn_0.35_dog_10_n02107683_3320.JPEG
cornet-s,7,960,NaN,bottle,dog,0.35,8640_nse_dnn_0.35_dog_10_n02109961_10774.JPEG
cornet-s,7,961,NaN,bottle,knife,0.60,8641_nse_dnn_0.60_knife_10_n03041632_28135.JPEG
cornet-s,7,962,NaN,clock,knife,0.60,8642_nse_dnn_0.60_knife_10_n03041632_7205.JPEG
cornet-s,7,963,NaN,clock,knife,0.60,8643_nse_dnn_0.60_knife_10_n03041632_26710.JPEG
cornet-s,7,964,NaN,clock,knife,0.60,8644_nse_dnn_0.60_knife_10_n03041632_7680.JPEG
cornet-s,7,965,NaN,clock,knife,0.60,8645_nse_dnn_0.60_knife_10_n03041632_9580.JPEG
cornet-s,7,966,NaN,clock,knife,0.60,8646_nse_dnn_0.60_knife_10_n03041632_83472.JPEG
cornet-s,7,967,NaN,bottle,knife,0.60,8647_nse_dnn_0.60_knife_10_n03041632_10000.JPEG
cornet-s,7,968,NaN,bottle,knife,0.60,8648_nse_dnn_0.60_knife_10_n03041632_19098.JPEG
cornet-s,7,969,NaN,clock,knife,0.60,8649_nse_dnn_0.60_knife_10_n03041632_26405.JPEG
cornet-s,7,970,NaN,clock,knife,0.60,8650_nse_dnn_0.60_knife_10_n03041632_11495.JPEG
cornet-s,7,971,NaN,clock,keyboard,0.60,8651_nse_dnn_0.60_keyboard_10_n04505470_2787.JPEG
cornet-s,7,972,NaN,clock,keyboard,0.60,8652_nse_dnn_0.60_keyboard_10_n04505470_1137.JPEG
cornet-s,7,973,NaN,bottle,keyboard,0.60,8653_nse_dnn_0.60_keyboard_10_n03085013_9244.JPEG
cornet-s,7,974,NaN,bottle,keyboard,0.60,8654_nse_dnn_0.60_keyboard_10_n03085013_20730.JPEG
cornet-s,7,975,NaN,bottle,keyboard,0.60,8655_nse_dnn_0.60_keyboard_10_n03085013_23018.JPEG
cornet-s,7,976,NaN,clock,keyboard,0.60,8656_nse_dnn_0.60_keyboard_10_n03085013_23916.JPEG
cornet-s,7,977,NaN,bottle,keyboard,0.60,8657_nse_dnn_0.60_keyboard_10_n03085013_11685.JPEG
cornet-s,7,978,NaN,clock,keyboard,0.60,8658_nse_dnn_0.60_keyboard_10_n04505470_179.JPEG
cornet-s,7,979,NaN,bottle,keyboard,0.60,8659_nse_dnn_0.60_keyboard_10_n03085013_19345.JPEG
cornet-s,7,980,NaN,clock,keyboard,0.60,8660_nse_dnn_0.60_keyboard_10_n04505470_4152.JPEG
cornet-s,7,981,NaN,bottle,elephant,0.60,8661_nse_dnn_0.60_elephant_10_n02504013_6127.JPEG
cornet-s,7,982,NaN,clock,elephant,0.60,8662_nse_dnn_0.60_elephant_10_n02504013_783.JPEG
cornet-s,7,983,NaN,clock,elephant,0.60,8663_nse_dnn_0.60_elephant_10_n02504458_113.JPEG
cornet-s,7,984,NaN,clock,elephant,0.60,8664_nse_dnn_0.60_elephant_10_n02504013_1986.JPEG
cornet-s,7,985,NaN,clock,elephant,0.60,8665_nse_dnn_0.60_elephant_10_n02504458_7070.JPEG
cornet-s,7,986,NaN,clock,elephant,0.60,8666_nse_dnn_0.60_elephant_10_n02504013_15219.JPEG
cornet-s,7,987,NaN,clock,elephant,0.60,8667_nse_dnn_0.60_elephant_10_n02504458_3777.JPEG
cornet-s,7,988,NaN,clock,elephant,0.60,8668_nse_dnn_0.60_elephant_10_n02504458_7963.JPEG
cornet-s,7,989,NaN,clock,elephant,0.60,8669_nse_dnn_0.60_elephant_10_n02504458_2429.JPEG
cornet-s,7,990,NaN,clock,elephant,0.60,8670_nse_dnn_0.60_elephant_10_n02504458_4180.JPEG
cornet-s,7,991,NaN,bottle,bicycle,0.60,8671_nse_dnn_0.60_bicycle_10_n02835271_12840.JPEG
cornet-s,7,992,NaN,bottle,bicycle,0.60,8672_nse_dnn_0.60_bicycle_10_n03792782_16117.JPEG
cornet-s,7,993,NaN,clock,bicycle,0.60,8673_nse_dnn_0.60_bicycle_10_n03792782_7438.JPEG
cornet-s,7,994,NaN,clock,bicycle,0.60,8674_nse_dnn_0.60_bicycle_10_n03792782_15679.JPEG
cornet-s,7,995,NaN,bottle,bicycle,0.60,8675_nse_dnn_0.60_bicycle_10_n02835271_3280.JPEG
cornet-s,7,996,NaN,bottle,bicycle,0.60,8676_nse_dnn_0.60_bicycle_10_n03792782_23912.JPEG
cornet-s,7,997,NaN,bottle,bicycle,0.60,8677_nse_dnn_0.60_bicycle_10_n02835271_23888.JPEG
cornet-s,7,998,NaN,bottle,bicycle,0.60,8678_nse_dnn_0.60_bicycle_10_n03792782_32689.JPEG
cornet-s,7,999,NaN,bottle,bicycle,0.60,8679_nse_dnn_0.60_bicycle_10_n03792782_5035.JPEG
cornet-s,7,1000,NaN,bottle,bicycle,0.60,8680_nse_dnn_0.60_bicycle_10_n02835271_3597.JPEG
cornet-s,7,1001,NaN,clock,airplane,0.60,8681_nse_dnn_0.60_airplane_10_n02690373_6825.JPEG
cornet-s,7,1002,NaN,clock,airplane,0.60,8682_nse_dnn_0.60_airplane_10_n02690373_1316.JPEG
cornet-s,7,1003,NaN,bottle,airplane,0.60,8683_nse_dnn_0.60_airplane_10_n02690373_5254.JPEG
cornet-s,7,1004,NaN,bottle,airplane,0.60,8684_nse_dnn_0.60_airplane_10_n02690373_9687.JPEG
cornet-s,7,1005,NaN,clock,airplane,0.60,8685_nse_dnn_0.60_airplane_10_n02690373_13585.JPEG
cornet-s,7,1006,NaN,clock,airplane,0.60,8686_nse_dnn_0.60_airplane_10_n02690373_10114.JPEG
cornet-s,7,1007,NaN,clock,airplane,0.60,8687_nse_dnn_0.60_airplane_10_n02690373_2324.JPEG
cornet-s,7,1008,NaN,clock,airplane,0.60,8688_nse_dnn_0.60_airplane_10_n02690373_4364.JPEG
cornet-s,7,1009,NaN,clock,airplane,0.60,8689_nse_dnn_0.60_airplane_10_n02690373_6739.JPEG
cornet-s,7,1010,NaN,bottle,airplane,0.60,8690_nse_dnn_0.60_airplane_10_n02690373_6988.JPEG
cornet-s,7,1011,NaN,clock,clock,0.60,8691_nse_dnn_0.60_clock_10_n03196217_6876.JPEG
cornet-s,7,1012,NaN,clock,clock,0.60,8692_nse_dnn_0.60_clock_10_n02708093_1908.JPEG
cornet-s,7,1013,NaN,clock,clock,0.60,8693_nse_dnn_0.60_clock_10_n02708093_433.JPEG
cornet-s,7,1014,NaN,clock,clock,0.60,8694_nse_dnn_0.60_clock_10_n03196217_2503.JPEG
cornet-s,7,1015,NaN,bottle,clock,0.60,8695_nse_dnn_0.60_clock_10_n04548280_9011.JPEG
cornet-s,7,1016,NaN,clock,clock,0.60,8696_nse_dnn_0.60_clock_10_n04548280_3356.JPEG
cornet-s,7,1017,NaN,bottle,clock,0.60,8697_nse_dnn_0.60_clock_10_n04548280_28.JPEG
cornet-s,7,1018,NaN,clock,clock,0.60,8698_nse_dnn_0.60_clock_10_n03196217_3362.JPEG
cornet-s,7,1019,NaN,clock,clock,0.60,8699_nse_dnn_0.60_clock_10_n02708093_1295.JPEG
cornet-s,7,1020,NaN,bottle,clock,0.60,8700_nse_dnn_0.60_clock_10_n04548280_2313.JPEG
cornet-s,7,1021,NaN,clock,oven,0.60,8701_nse_dnn_0.60_oven_10_n04111531_10375.JPEG
cornet-s,7,1022,NaN,clock,oven,0.60,8702_nse_dnn_0.60_oven_10_n04111531_9910.JPEG
cornet-s,7,1023,NaN,clock,oven,0.60,8703_nse_dnn_0.60_oven_10_n04111531_5897.JPEG
cornet-s,7,1024,NaN,clock,oven,0.60,8704_nse_dnn_0.60_oven_10_n04111531_3717.JPEG
cornet-s,7,1025,NaN,clock,oven,0.60,8705_nse_dnn_0.60_oven_10_n04111531_1442.JPEG
cornet-s,7,1026,NaN,clock,oven,0.60,8706_nse_dnn_0.60_oven_10_n04111531_46651.JPEG
cornet-s,7,1027,NaN,clock,oven,0.60,8707_nse_dnn_0.60_oven_10_n04111531_19274.JPEG
cornet-s,7,1028,NaN,bottle,oven,0.60,8708_nse_dnn_0.60_oven_10_n04111531_8263.JPEG
cornet-s,7,1029,NaN,clock,oven,0.60,8709_nse_dnn_0.60_oven_10_n04111531_4227.JPEG
cornet-s,7,1030,NaN,clock,oven,0.60,8710_nse_dnn_0.60_oven_10_n04111531_7741.JPEG
cornet-s,7,1031,NaN,bottle,chair,0.60,8711_nse_dnn_0.60_chair_10_n04099969_5013.JPEG
cornet-s,7,1032,NaN,clock,chair,0.60,8712_nse_dnn_0.60_chair_10_n04429376_47670.JPEG
cornet-s,7,1033,NaN,clock,chair,0.60,8713_nse_dnn_0.60_chair_10_n04429376_5159.JPEG
cornet-s,7,1034,NaN,clock,chair,0.60,8714_nse_dnn_0.60_chair_10_n04429376_15534.JPEG
cornet-s,7,1035,NaN,clock,chair,0.60,8715_nse_dnn_0.60_chair_10_n04429376_6390.JPEG
cornet-s,7,1036,NaN,clock,chair,0.60,8716_nse_dnn_0.60_chair_10_n04429376_22811.JPEG
cornet-s,7,1037,NaN,bottle,chair,0.60,8717_nse_dnn_0.60_chair_10_n04099969_7962.JPEG
cornet-s,7,1038,NaN,bottle,chair,0.60,8718_nse_dnn_0.60_chair_10_n04429376_2360.JPEG
cornet-s,7,1039,NaN,bottle,chair,0.60,8719_nse_dnn_0.60_chair_10_n02791124_4728.JPEG
cornet-s,7,1040,NaN,clock,chair,0.60,8720_nse_dnn_0.60_chair_10_n04429376_54570.JPEG
cornet-s,7,1041,NaN,clock,bear,0.60,8721_nse_dnn_0.60_bear_10_n02133161_1711.JPEG
cornet-s,7,1042,NaN,clock,bear,0.60,8722_nse_dnn_0.60_bear_10_n02132136_9478.JPEG
cornet-s,7,1043,NaN,clock,bear,0.60,8723_nse_dnn_0.60_bear_10_n02134084_23439.JPEG
cornet-s,7,1044,NaN,clock,bear,0.60,8724_nse_dnn_0.60_bear_10_n02134418_1295.JPEG
cornet-s,7,1045,NaN,clock,bear,0.60,8725_nse_dnn_0.60_bear_10_n02132136_6507.JPEG
cornet-s,7,1046,NaN,clock,bear,0.60,8726_nse_dnn_0.60_bear_10_n02134418_2384.JPEG
cornet-s,7,1047,NaN,clock,bear,0.60,8727_nse_dnn_0.60_bear_10_n02134084_24020.JPEG
cornet-s,7,1048,NaN,bottle,bear,0.60,8728_nse_dnn_0.60_bear_10_n02133161_689.JPEG
cornet-s,7,1049,NaN,bottle,bear,0.60,8729_nse_dnn_0.60_bear_10_n02132136_15681.JPEG
cornet-s,7,1050,NaN,clock,bear,0.60,8730_nse_dnn_0.60_bear_10_n02134418_693.JPEG
cornet-s,7,1051,NaN,clock,boat,0.60,8731_nse_dnn_0.60_boat_10_n03662601_8491.JPEG
cornet-s,7,1052,NaN,bottle,boat,0.60,8732_nse_dnn_0.60_boat_10_n04273569_1388.JPEG
cornet-s,7,1053,NaN,bottle,boat,0.60,8733_nse_dnn_0.60_boat_10_n03344393_8482.JPEG
cornet-s,7,1054,NaN,clock,boat,0.60,8734_nse_dnn_0.60_boat_10_n04273569_14363.JPEG
cornet-s,7,1055,NaN,clock,boat,0.60,8735_nse_dnn_0.60_boat_10_n03344393_11386.JPEG
cornet-s,7,1056,NaN,bottle,boat,0.60,8736_nse_dnn_0.60_boat_10_n02951358_16285.JPEG
cornet-s,7,1057,NaN,clock,boat,0.60,8737_nse_dnn_0.60_boat_10_n02951358_7784.JPEG
cornet-s,7,1058,NaN,clock,boat,0.60,8738_nse_dnn_0.60_boat_10_n02951358_784.JPEG
cornet-s,7,1059,NaN,clock,boat,0.60,8739_nse_dnn_0.60_boat_10_n02951358_12797.JPEG
cornet-s,7,1060,NaN,bottle,boat,0.60,8740_nse_dnn_0.60_boat_10_n03662601_19113.JPEG
cornet-s,7,1061,NaN,bottle,cat,0.60,8741_nse_dnn_0.60_cat_10_n02123159_5678.JPEG
cornet-s,7,1062,NaN,clock,cat,0.60,8742_nse_dnn_0.60_cat_10_n02124075_15230.JPEG
cornet-s,7,1063,NaN,bottle,cat,0.60,8743_nse_dnn_0.60_cat_10_n02124075_11979.JPEG
cornet-s,7,1064,NaN,bottle,cat,0.60,8744_nse_dnn_0.60_cat_10_n02123045_1546.JPEG
cornet-s,7,1065,NaN,clock,cat,0.60,8745_nse_dnn_0.60_cat_10_n02123159_1907.JPEG
cornet-s,7,1066,NaN,clock,cat,0.60,8746_nse_dnn_0.60_cat_10_n02123159_2961.JPEG
cornet-s,7,1067,NaN,bottle,cat,0.60,8747_nse_dnn_0.60_cat_10_n02124075_5848.JPEG
cornet-s,7,1068,NaN,bottle,cat,0.60,8748_nse_dnn_0.60_cat_10_n02123394_7807.JPEG
cornet-s,7,1069,NaN,clock,cat,0.60,8749_nse_dnn_0.60_cat_10_n02123597_5530.JPEG
cornet-s,7,1070,NaN,bottle,cat,0.60,8750_nse_dnn_0.60_cat_10_n02123394_6528.JPEG
cornet-s,7,1071,NaN,bottle,bottle,0.60,8751_nse_dnn_0.60_bottle_10_n04591713_1160.JPEG
cornet-s,7,1072,NaN,bottle,bottle,0.60,8752_nse_dnn_0.60_bottle_10_n03983396_10251.JPEG
cornet-s,7,1073,NaN,bottle,bottle,0.60,8753_nse_dnn_0.60_bottle_10_n03983396_1947.JPEG
cornet-s,7,1074,NaN,bottle,bottle,0.60,8754_nse_dnn_0.60_bottle_10_n04591713_2753.JPEG
cornet-s,7,1075,NaN,clock,bottle,0.60,8755_nse_dnn_0.60_bottle_10_n03983396_4713.JPEG
cornet-s,7,1076,NaN,bottle,bottle,0.60,8756_nse_dnn_0.60_bottle_10_n04557648_12255.JPEG
cornet-s,7,1077,NaN,bottle,bottle,0.60,8757_nse_dnn_0.60_bottle_10_n03937543_1110.JPEG
cornet-s,7,1078,NaN,clock,bottle,0.60,8758_nse_dnn_0.60_bottle_10_n04579145_6828.JPEG
cornet-s,7,1079,NaN,clock,bottle,0.60,8759_nse_dnn_0.60_bottle_10_n03937543_3511.JPEG
cornet-s,7,1080,NaN,clock,bottle,0.60,8760_nse_dnn_0.60_bottle_10_n03937543_4830.JPEG
cornet-s,7,1081,NaN,bottle,truck,0.60,8761_nse_dnn_0.60_truck_10_n03796401_26221.JPEG
cornet-s,7,1082,NaN,clock,truck,0.60,8762_nse_dnn_0.60_truck_10_n03796401_1773.JPEG
cornet-s,7,1083,NaN,clock,truck,0.60,8763_nse_dnn_0.60_truck_10_n03796401_12033.JPEG
cornet-s,7,1084,NaN,bottle,truck,0.60,8764_nse_dnn_0.60_truck_10_n04467665_71074.JPEG
cornet-s,7,1085,NaN,bottle,truck,0.60,8765_nse_dnn_0.60_truck_10_n03417042_1051.JPEG
cornet-s,7,1086,NaN,clock,truck,0.60,8766_nse_dnn_0.60_truck_10_n03417042_19355.JPEG
cornet-s,7,1087,NaN,clock,truck,0.60,8767_nse_dnn_0.60_truck_10_n03417042_5232.JPEG
cornet-s,7,1088,NaN,clock,truck,0.60,8768_nse_dnn_0.60_truck_10_n03417042_18932.JPEG
cornet-s,7,1089,NaN,clock,truck,0.60,8769_nse_dnn_0.60_truck_10_n03417042_11072.JPEG
cornet-s,7,1090,NaN,bottle,truck,0.60,8770_nse_dnn_0.60_truck_10_n04467665_1029.JPEG
cornet-s,7,1091,NaN,clock,car,0.60,8771_nse_dnn_0.60_car_10_n03100240_1263.JPEG
cornet-s,7,1092,NaN,clock,car,0.60,8772_nse_dnn_0.60_car_10_n04285008_874.JPEG
cornet-s,7,1093,NaN,clock,car,0.60,8773_nse_dnn_0.60_car_10_n02814533_36206.JPEG
cornet-s,7,1094,NaN,clock,car,0.60,8774_nse_dnn_0.60_car_10_n03100240_6607.JPEG
cornet-s,7,1095,NaN,clock,car,0.60,8775_nse_dnn_0.60_car_10_n04285008_14573.JPEG
cornet-s,7,1096,NaN,bottle,car,0.60,8776_nse_dnn_0.60_car_10_n02814533_8994.JPEG
cornet-s,7,1097,NaN,bottle,car,0.60,8777_nse_dnn_0.60_car_10_n04285008_800.JPEG
cornet-s,7,1098,NaN,clock,car,0.60,8778_nse_dnn_0.60_car_10_n03100240_3373.JPEG
cornet-s,7,1099,NaN,bottle,car,0.60,8779_nse_dnn_0.60_car_10_n02814533_55715.JPEG
cornet-s,7,1100,NaN,bottle,car,0.60,8780_nse_dnn_0.60_car_10_n04285008_6131.JPEG
cornet-s,7,1101,NaN,clock,bird,0.60,8781_nse_dnn_0.60_bird_10_n02056570_9492.JPEG
cornet-s,7,1102,NaN,clock,bird,0.60,8782_nse_dnn_0.60_bird_10_n02002724_9266.JPEG
cornet-s,7,1103,NaN,clock,bird,0.60,8783_nse_dnn_0.60_bird_10_n01558993_1961.JPEG
cornet-s,7,1104,NaN,clock,bird,0.60,8784_nse_dnn_0.60_bird_10_n02006656_6989.JPEG
cornet-s,7,1105,NaN,clock,bird,0.60,8785_nse_dnn_0.60_bird_10_n02025239_1085.JPEG
cornet-s,7,1106,NaN,clock,bird,0.60,8786_nse_dnn_0.60_bird_10_n01824575_5068.JPEG
cornet-s,7,1107,NaN,clock,bird,0.60,8787_nse_dnn_0.60_bird_10_n01558993_10530.JPEG
cornet-s,7,1108,NaN,clock,bird,0.60,8788_nse_dnn_0.60_bird_10_n01622779_21033.JPEG
cornet-s,7,1109,NaN,clock,bird,0.60,8789_nse_dnn_0.60_bird_10_n01820546_654.JPEG
cornet-s,7,1110,NaN,bottle,bird,0.60,8790_nse_dnn_0.60_bird_10_n01796340_449.JPEG
cornet-s,7,1111,NaN,clock,dog,0.60,8791_nse_dnn_0.60_dog_10_n02102480_2701.JPEG
cornet-s,7,1112,NaN,clock,dog,0.60,8792_nse_dnn_0.60_dog_10_n02095570_11253.JPEG
cornet-s,7,1113,NaN,clock,dog,0.60,8793_nse_dnn_0.60_dog_10_n02091244_9994.JPEG
cornet-s,7,1114,NaN,clock,dog,0.60,8794_nse_dnn_0.60_dog_10_n02102177_116.JPEG
cornet-s,7,1115,NaN,clock,dog,0.60,8795_nse_dnn_0.60_dog_10_n02105162_5259.JPEG
cornet-s,7,1116,NaN,bottle,dog,0.60,8796_nse_dnn_0.60_dog_10_n02086240_1220.JPEG
cornet-s,7,1117,NaN,bottle,dog,0.60,8797_nse_dnn_0.60_dog_10_n02108422_5221.JPEG
cornet-s,7,1118,NaN,clock,dog,0.60,8798_nse_dnn_0.60_dog_10_n02101388_2502.JPEG
cornet-s,7,1119,NaN,clock,dog,0.60,8799_nse_dnn_0.60_dog_10_n02090379_3325.JPEG
cornet-s,7,1120,NaN,bottle,dog,0.60,8800_nse_dnn_0.60_dog_10_n02093428_5172.JPEG
cornet-s,7,1121,NaN,clock,knife,0.90,8801_nse_dnn_0.90_knife_10_n03041632_5916.JPEG
cornet-s,7,1122,NaN,clock,knife,0.90,8802_nse_dnn_0.90_knife_10_n03041632_28129.JPEG
cornet-s,7,1123,NaN,clock,knife,0.90,8803_nse_dnn_0.90_knife_10_n03041632_28202.JPEG
cornet-s,7,1124,NaN,clock,knife,0.90,8804_nse_dnn_0.90_knife_10_n03041632_51766.JPEG
cornet-s,7,1125,NaN,clock,knife,0.90,8805_nse_dnn_0.90_knife_10_n03041632_46422.JPEG
cornet-s,7,1126,NaN,clock,knife,0.90,8806_nse_dnn_0.90_knife_10_n03041632_48062.JPEG
cornet-s,7,1127,NaN,clock,knife,0.90,8807_nse_dnn_0.90_knife_10_n03041632_46720.JPEG
cornet-s,7,1128,NaN,clock,knife,0.90,8808_nse_dnn_0.90_knife_10_n03041632_79317.JPEG
cornet-s,7,1129,NaN,clock,knife,0.90,8809_nse_dnn_0.90_knife_10_n03041632_13645.JPEG
cornet-s,7,1130,NaN,clock,knife,0.90,8810_nse_dnn_0.90_knife_10_n03041632_9963.JPEG
cornet-s,7,1131,NaN,clock,keyboard,0.90,8811_nse_dnn_0.90_keyboard_10_n04505470_5127.JPEG
cornet-s,7,1132,NaN,clock,keyboard,0.90,8812_nse_dnn_0.90_keyboard_10_n03085013_23546.JPEG
cornet-s,7,1133,NaN,clock,keyboard,0.90,8813_nse_dnn_0.90_keyboard_10_n03085013_21645.JPEG
cornet-s,7,1134,NaN,clock,keyboard,0.90,8814_nse_dnn_0.90_keyboard_10_n04505470_5036.JPEG
cornet-s,7,1135,NaN,clock,keyboard,0.90,8815_nse_dnn_0.90_keyboard_10_n04505470_262.JPEG
cornet-s,7,1136,NaN,clock,keyboard,0.90,8816_nse_dnn_0.90_keyboard_10_n03085013_12079.JPEG
cornet-s,7,1137,NaN,clock,keyboard,0.90,8817_nse_dnn_0.90_keyboard_10_n03085013_24577.JPEG
cornet-s,7,1138,NaN,clock,keyboard,0.90,8818_nse_dnn_0.90_keyboard_10_n03085013_23534.JPEG
cornet-s,7,1139,NaN,clock,keyboard,0.90,8819_nse_dnn_0.90_keyboard_10_n04505470_4770.JPEG
cornet-s,7,1140,NaN,clock,keyboard,0.90,8820_nse_dnn_0.90_keyboard_10_n03085013_9146.JPEG
cornet-s,7,1141,NaN,clock,elephant,0.90,8821_nse_dnn_0.90_elephant_10_n02504013_2616.JPEG
cornet-s,7,1142,NaN,clock,elephant,0.90,8822_nse_dnn_0.90_elephant_10_n02504458_952.JPEG
cornet-s,7,1143,NaN,clock,elephant,0.90,8823_nse_dnn_0.90_elephant_10_n02504013_1743.JPEG
cornet-s,7,1144,NaN,clock,elephant,0.90,8824_nse_dnn_0.90_elephant_10_n02504458_863.JPEG
cornet-s,7,1145,NaN,clock,elephant,0.90,8825_nse_dnn_0.90_elephant_10_n02504013_21340.JPEG
cornet-s,7,1146,NaN,clock,elephant,0.90,8826_nse_dnn_0.90_elephant_10_n02504458_9922.JPEG
cornet-s,7,1147,NaN,clock,elephant,0.90,8827_nse_dnn_0.90_elephant_10_n02504458_1506.JPEG
cornet-s,7,1148,NaN,clock,elephant,0.90,8828_nse_dnn_0.90_elephant_10_n02504458_11772.JPEG
cornet-s,7,1149,NaN,clock,elephant,0.90,8829_nse_dnn_0.90_elephant_10_n02504013_5225.JPEG
cornet-s,7,1150,NaN,clock,elephant,0.90,8830_nse_dnn_0.90_elephant_10_n02504013_6461.JPEG
cornet-s,7,1151,NaN,clock,bicycle,0.90,8831_nse_dnn_0.90_bicycle_10_n02835271_12711.JPEG
cornet-s,7,1152,NaN,clock,bicycle,0.90,8832_nse_dnn_0.90_bicycle_10_n02835271_2661.JPEG
cornet-s,7,1153,NaN,clock,bicycle,0.90,8833_nse_dnn_0.90_bicycle_10_n03792782_1099.JPEG
cornet-s,7,1154,NaN,clock,bicycle,0.90,8834_nse_dnn_0.90_bicycle_10_n03792782_5557.JPEG
cornet-s,7,1155,NaN,clock,bicycle,0.90,8835_nse_dnn_0.90_bicycle_10_n03792782_37253.JPEG
cornet-s,7,1156,NaN,clock,bicycle,0.90,8836_nse_dnn_0.90_bicycle_10_n03792782_122.JPEG
cornet-s,7,1157,NaN,clock,bicycle,0.90,8837_nse_dnn_0.90_bicycle_10_n03792782_6569.JPEG
cornet-s,7,1158,NaN,clock,bicycle,0.90,8838_nse_dnn_0.90_bicycle_10_n02835271_8081.JPEG
cornet-s,7,1159,NaN,clock,bicycle,0.90,8839_nse_dnn_0.90_bicycle_10_n03792782_22856.JPEG
cornet-s,7,1160,NaN,clock,bicycle,0.90,8840_nse_dnn_0.90_bicycle_10_n02835271_20153.JPEG
cornet-s,7,1161,NaN,clock,airplane,0.90,8841_nse_dnn_0.90_airplane_10_n02690373_9712.JPEG
cornet-s,7,1162,NaN,clock,airplane,0.90,8842_nse_dnn_0.90_airplane_10_n02690373_945.JPEG
cornet-s,7,1163,NaN,clock,airplane,0.90,8843_nse_dnn_0.90_airplane_10_n02690373_4061.JPEG
cornet-s,7,1164,NaN,clock,airplane,0.90,8844_nse_dnn_0.90_airplane_10_n02690373_1277.JPEG
cornet-s,7,1165,NaN,clock,airplane,0.90,8845_nse_dnn_0.90_airplane_10_n02690373_1946.JPEG
cornet-s,7,1166,NaN,clock,airplane,0.90,8846_nse_dnn_0.90_airplane_10_n02690373_3435.JPEG
cornet-s,7,1167,NaN,clock,airplane,0.90,8847_nse_dnn_0.90_airplane_10_n02690373_6853.JPEG
cornet-s,7,1168,NaN,clock,airplane,0.90,8848_nse_dnn_0.90_airplane_10_n02690373_10729.JPEG
cornet-s,7,1169,NaN,clock,airplane,0.90,8849_nse_dnn_0.90_airplane_10_n02690373_3860.JPEG
cornet-s,7,1170,NaN,clock,airplane,0.90,8850_nse_dnn_0.90_airplane_10_n02690373_9293.JPEG
cornet-s,7,1171,NaN,clock,clock,0.90,8851_nse_dnn_0.90_clock_10_n02708093_274.JPEG
cornet-s,7,1172,NaN,clock,clock,0.90,8852_nse_dnn_0.90_clock_10_n04548280_3454.JPEG
cornet-s,7,1173,NaN,clock,clock,0.90,8853_nse_dnn_0.90_clock_10_n02708093_6814.JPEG
cornet-s,7,1174,NaN,clock,clock,0.90,8854_nse_dnn_0.90_clock_10_n04548280_3392.JPEG
cornet-s,7,1175,NaN,clock,clock,0.90,8855_nse_dnn_0.90_clock_10_n03196217_6809.JPEG
cornet-s,7,1176,NaN,clock,clock,0.90,8856_nse_dnn_0.90_clock_10_n04548280_4709.JPEG
cornet-s,7,1177,NaN,clock,clock,0.90,8857_nse_dnn_0.90_clock_10_n03196217_813.JPEG
cornet-s,7,1178,NaN,clock,clock,0.90,8858_nse_dnn_0.90_clock_10_n03196217_6033.JPEG
cornet-s,7,1179,NaN,clock,clock,0.90,8859_nse_dnn_0.90_clock_10_n02708093_5551.JPEG
cornet-s,7,1180,NaN,clock,clock,0.90,8860_nse_dnn_0.90_clock_10_n04548280_5933.JPEG
cornet-s,7,1181,NaN,clock,oven,0.90,8861_nse_dnn_0.90_oven_10_n04111531_3470.JPEG
cornet-s,7,1182,NaN,clock,oven,0.90,8862_nse_dnn_0.90_oven_10_n04111531_9224.JPEG
cornet-s,7,1183,NaN,clock,oven,0.90,8863_nse_dnn_0.90_oven_10_n04111531_1752.JPEG
cornet-s,7,1184,NaN,clock,oven,0.90,8864_nse_dnn_0.90_oven_10_n04111531_9867.JPEG
cornet-s,7,1185,NaN,clock,oven,0.90,8865_nse_dnn_0.90_oven_10_n04111531_3477.JPEG
cornet-s,7,1186,NaN,clock,oven,0.90,8866_nse_dnn_0.90_oven_10_n04111531_10420.JPEG
cornet-s,7,1187,NaN,clock,oven,0.90,8867_nse_dnn_0.90_oven_10_n04111531_2771.JPEG
cornet-s,7,1188,NaN,clock,oven,0.90,8868_nse_dnn_0.90_oven_10_n04111531_10399.JPEG
cornet-s,7,1189,NaN,clock,oven,0.90,8869_nse_dnn_0.90_oven_10_n04111531_22203.JPEG
cornet-s,7,1190,NaN,clock,oven,0.90,8870_nse_dnn_0.90_oven_10_n04111531_14488.JPEG
