subj,session,trial,rt,object_response,category,condition,imagename
cornet-s,1,1,NaN,clock,knife,0.4,0001_hp_dnn_0.4_knife_10_n03041632_8618.png
cornet-s,1,2,NaN,clock,knife,0.4,0002_hp_dnn_0.4_knife_10_n03041632_51256.png
cornet-s,1,3,NaN,clock,knife,0.4,0003_hp_dnn_0.4_knife_10_n03041632_27898.png
cornet-s,1,4,NaN,clock,knife,0.4,0004_hp_dnn_0.4_knife_10_n03041632_32177.png
cornet-s,1,5,NaN,airplane,knife,0.4,0005_hp_dnn_0.4_knife_10_n03041632_23548.png
cornet-s,1,6,NaN,knife,knife,0.4,0006_hp_dnn_0.4_knife_10_n03041632_41381.png
cornet-s,1,7,NaN,clock,knife,0.4,0007_hp_dnn_0.4_knife_10_n03041632_24264.png
cornet-s,1,8,NaN,airplane,knife,0.4,0008_hp_dnn_0.4_knife_10_n03041632_45090.png
cornet-s,1,9,NaN,clock,knife,0.4,0009_hp_dnn_0.4_knife_10_n03041632_87339.png
cornet-s,1,10,NaN,clock,knife,0.4,0010_hp_dnn_0.4_knife_10_n03041632_96361.png
cornet-s,1,11,NaN,clock,keyboard,0.4,0011_hp_dnn_0.4_keyboard_10_n03085013_21070.png
cornet-s,1,12,NaN,clock,keyboard,0.4,0012_hp_dnn_0.4_keyboard_10_n04505470_5009.png
cornet-s,1,13,NaN,clock,keyboard,0.4,0013_hp_dnn_0.4_keyboard_10_n03085013_3098.png
cornet-s,1,14,NaN,clock,keyboard,0.4,0014_hp_dnn_0.4_keyboard_10_n03085013_20594.png
cornet-s,1,15,NaN,clock,keyboard,0.4,0015_hp_dnn_0.4_keyboard_10_n04505470_3261.png
cornet-s,1,16,NaN,clock,keyboard,0.4,0016_hp_dnn_0.4_keyboard_10_n04505470_8121.png
cornet-s,1,17,NaN,clock,keyboard,0.4,0017_hp_dnn_0.4_keyboard_10_n04505470_64.png
cornet-s,1,18,NaN,knife,keyboard,0.4,0018_hp_dnn_0.4_keyboard_10_n03085013_19687.png
cornet-s,1,19,NaN,knife,keyboard,0.4,0019_hp_dnn_0.4_keyboard_10_n04505470_241.png
cornet-s,1,20,NaN,clock,keyboard,0.4,0020_hp_dnn_0.4_keyboard_10_n03085013_23763.png
cornet-s,1,21,NaN,clock,elephant,0.4,0021_hp_dnn_0.4_elephant_10_n02504013_6171.png
cornet-s,1,22,NaN,clock,elephant,0.4,0022_hp_dnn_0.4_elephant_10_n02504013_5918.png
cornet-s,1,23,NaN,clock,elephant,0.4,0023_hp_dnn_0.4_elephant_10_n02504458_574.png
cornet-s,1,24,NaN,clock,elephant,0.4,0024_hp_dnn_0.4_elephant_10_n02504458_804.png
cornet-s,1,25,NaN,clock,elephant,0.4,0025_hp_dnn_0.4_elephant_10_n02504013_2787.png
cornet-s,1,26,NaN,clock,elephant,0.4,0026_hp_dnn_0.4_elephant_10_n02504458_8126.png
cornet-s,1,27,NaN,clock,elephant,0.4,0027_hp_dnn_0.4_elephant_10_n02504458_341.png
cornet-s,1,28,NaN,clock,elephant,0.4,0028_hp_dnn_0.4_elephant_10_n02504458_5288.png
cornet-s,1,29,NaN,clock,elephant,0.4,0029_hp_dnn_0.4_elephant_10_n02504013_6880.png
cornet-s,1,30,NaN,clock,elephant,0.4,0030_hp_dnn_0.4_elephant_10_n02504458_4228.png
cornet-s,1,31,NaN,clock,bicycle,0.4,0031_hp_dnn_0.4_bicycle_10_n02835271_17168.png
cornet-s,1,32,NaN,clock,bicycle,0.4,0032_hp_dnn_0.4_bicycle_10_n03792782_15614.png
cornet-s,1,33,NaN,clock,bicycle,0.4,0033_hp_dnn_0.4_bicycle_10_n03792782_67333.png
cornet-s,1,34,NaN,clock,bicycle,0.4,0034_hp_dnn_0.4_bicycle_10_n02835271_9507.png
cornet-s,1,35,NaN,clock,bicycle,0.4,0035_hp_dnn_0.4_bicycle_10_n03792782_6250.png
cornet-s,1,36,NaN,clock,bicycle,0.4,0036_hp_dnn_0.4_bicycle_10_n03792782_15189.png
cornet-s,1,37,NaN,clock,bicycle,0.4,0037_hp_dnn_0.4_bicycle_10_n02835271_6921.png
cornet-s,1,38,NaN,clock,bicycle,0.4,0038_hp_dnn_0.4_bicycle_10_n02835271_12173.png
cornet-s,1,39,NaN,clock,bicycle,0.4,0039_hp_dnn_0.4_bicycle_10_n03792782_17134.png
cornet-s,1,40,NaN,clock,bicycle,0.4,0040_hp_dnn_0.4_bicycle_10_n02835271_2013.png
cornet-s,1,41,NaN,knife,airplane,0.4,0041_hp_dnn_0.4_airplane_10_n02690373_20071.png
cornet-s,1,42,NaN,clock,airplane,0.4,0042_hp_dnn_0.4_airplane_10_n02690373_8583.png
cornet-s,1,43,NaN,clock,airplane,0.4,0043_hp_dnn_0.4_airplane_10_n02690373_5689.png
cornet-s,1,44,NaN,knife,airplane,0.4,0044_hp_dnn_0.4_airplane_10_n02690373_1451.png
cornet-s,1,45,NaN,clock,airplane,0.4,0045_hp_dnn_0.4_airplane_10_n02690373_1975.png
cornet-s,1,46,NaN,knife,airplane,0.4,0046_hp_dnn_0.4_airplane_10_n02690373_2010.png
cornet-s,1,47,NaN,airplane,airplane,0.4,0047_hp_dnn_0.4_airplane_10_n02690373_3451.png
cornet-s,1,48,NaN,knife,airplane,0.4,0048_hp_dnn_0.4_airplane_10_n02690373_10723.png
cornet-s,1,49,NaN,knife,airplane,0.4,0049_hp_dnn_0.4_airplane_10_n02690373_7408.png
cornet-s,1,50,NaN,clock,airplane,0.4,0050_hp_dnn_0.4_airplane_10_n02690373_5487.png
cornet-s,1,51,NaN,clock,clock,0.4,0051_hp_dnn_0.4_clock_10_n04548280_7069.png
cornet-s,1,52,NaN,knife,clock,0.4,0052_hp_dnn_0.4_clock_10_n02708093_1356.png
cornet-s,1,53,NaN,knife,clock,0.4,0053_hp_dnn_0.4_clock_10_n04548280_4862.png
cornet-s,1,54,NaN,clock,clock,0.4,0054_hp_dnn_0.4_clock_10_n04548280_8429.png
cornet-s,1,55,NaN,clock,clock,0.4,0055_hp_dnn_0.4_clock_10_n03196217_85.png
cornet-s,1,56,NaN,knife,clock,0.4,0056_hp_dnn_0.4_clock_10_n04548280_5072.png
cornet-s,1,57,NaN,clock,clock,0.4,0057_hp_dnn_0.4_clock_10_n04548280_2712.png
cornet-s,1,58,NaN,clock,clock,0.4,0058_hp_dnn_0.4_clock_10_n02708093_4833.png
cornet-s,1,59,NaN,clock,clock,0.4,0059_hp_dnn_0.4_clock_10_n04548280_1108.png
cornet-s,1,60,NaN,clock,clock,0.4,0060_hp_dnn_0.4_clock_10_n04548280_1619.png
cornet-s,1,61,NaN,clock,oven,0.4,0061_hp_dnn_0.4_oven_10_n04111531_8353.png
cornet-s,1,62,NaN,clock,oven,0.4,0062_hp_dnn_0.4_oven_10_n04111531_519.png
cornet-s,1,63,NaN,clock,oven,0.4,0063_hp_dnn_0.4_oven_10_n04111531_4685.png
cornet-s,1,64,NaN,clock,oven,0.4,0064_hp_dnn_0.4_oven_10_n04111531_8441.png
cornet-s,1,65,NaN,clock,oven,0.4,0065_hp_dnn_0.4_oven_10_n04111531_1567.png
cornet-s,1,66,NaN,clock,oven,0.4,0066_hp_dnn_0.4_oven_10_n04111531_10681.png
cornet-s,1,67,NaN,clock,oven,0.4,0067_hp_dnn_0.4_oven_10_n04111531_1828.png
cornet-s,1,68,NaN,clock,oven,0.4,0068_hp_dnn_0.4_oven_10_n04111531_663.png
cornet-s,1,69,NaN,clock,oven,0.4,0069_hp_dnn_0.4_oven_10_n04111531_5102.png
cornet-s,1,70,NaN,clock,oven,0.4,0070_hp_dnn_0.4_oven_10_n04111531_1295.png
cornet-s,1,71,NaN,clock,chair,0.4,0071_hp_dnn_0.4_chair_10_n03376595_697.png
cornet-s,1,72,NaN,clock,chair,0.4,0072_hp_dnn_0.4_chair_10_n03376595_849.png
cornet-s,1,73,NaN,clock,chair,0.4,0073_hp_dnn_0.4_chair_10_n04429376_23092.png
cornet-s,1,74,NaN,chair,chair,0.4,0074_hp_dnn_0.4_chair_10_n03376595_16197.png
cornet-s,1,75,NaN,clock,chair,0.4,0075_hp_dnn_0.4_chair_10_n02791124_2058.png
cornet-s,1,76,NaN,clock,chair,0.4,0076_hp_dnn_0.4_chair_10_n04099969_23387.png
cornet-s,1,77,NaN,clock,chair,0.4,0077_hp_dnn_0.4_chair_10_n02791124_7602.png
cornet-s,1,78,NaN,clock,chair,0.4,0078_hp_dnn_0.4_chair_10_n02791124_7174.png
cornet-s,1,79,NaN,clock,chair,0.4,0079_hp_dnn_0.4_chair_10_n03376595_7755.png
cornet-s,1,80,NaN,clock,chair,0.4,0080_hp_dnn_0.4_chair_10_n04099969_6360.png
cornet-s,1,81,NaN,clock,bear,0.4,0081_hp_dnn_0.4_bear_10_n02134084_5756.png
cornet-s,1,82,NaN,clock,bear,0.4,0082_hp_dnn_0.4_bear_10_n02133161_14729.png
cornet-s,1,83,NaN,clock,bear,0.4,0083_hp_dnn_0.4_bear_10_n02133161_1059.png
cornet-s,1,84,NaN,clock,bear,0.4,0084_hp_dnn_0.4_bear_10_n02134418_5962.png
cornet-s,1,85,NaN,clock,bear,0.4,0085_hp_dnn_0.4_bear_10_n02132136_4883.png
cornet-s,1,86,NaN,clock,bear,0.4,0086_hp_dnn_0.4_bear_10_n02134084_7288.png
cornet-s,1,87,NaN,clock,bear,0.4,0087_hp_dnn_0.4_bear_10_n02132136_6431.png
cornet-s,1,88,NaN,clock,bear,0.4,0088_hp_dnn_0.4_bear_10_n02133161_5066.png
cornet-s,1,89,NaN,clock,bear,0.4,0089_hp_dnn_0.4_bear_10_n02132136_13864.png
cornet-s,1,90,NaN,clock,bear,0.4,0090_hp_dnn_0.4_bear_10_n02134084_7521.png
cornet-s,1,91,NaN,clock,boat,0.4,0091_hp_dnn_0.4_boat_10_n02951358_10138.png
cornet-s,1,92,NaN,clock,boat,0.4,0092_hp_dnn_0.4_boat_10_n02951358_20000.png
cornet-s,1,93,NaN,clock,boat,0.4,0093_hp_dnn_0.4_boat_10_n03662601_23315.png
cornet-s,1,94,NaN,clock,boat,0.4,0094_hp_dnn_0.4_boat_10_n04273569_14243.png
cornet-s,1,95,NaN,clock,boat,0.4,0095_hp_dnn_0.4_boat_10_n04612504_15844.png
cornet-s,1,96,NaN,clock,boat,0.4,0096_hp_dnn_0.4_boat_10_n04273569_1339.png
cornet-s,1,97,NaN,clock,boat,0.4,0097_hp_dnn_0.4_boat_10_n02951358_13090.png
cornet-s,1,98,NaN,clock,boat,0.4,0098_hp_dnn_0.4_boat_10_n03344393_5859.png
cornet-s,1,99,NaN,clock,boat,0.4,0099_hp_dnn_0.4_boat_10_n04273569_11964.png
cornet-s,1,100,NaN,clock,boat,0.4,0100_hp_dnn_0.4_boat_10_n04273569_21405.png
cornet-s,1,101,NaN,clock,cat,0.4,0101_hp_dnn_0.4_cat_10_n02123045_2351.png
cornet-s,1,102,NaN,clock,cat,0.4,0102_hp_dnn_0.4_cat_10_n02125311_45313.png
cornet-s,1,103,NaN,clock,cat,0.4,0103_hp_dnn_0.4_cat_10_n02123159_6666.png
cornet-s,1,104,NaN,clock,cat,0.4,0104_hp_dnn_0.4_cat_10_n02123597_7490.png
cornet-s,1,105,NaN,clock,cat,0.4,0105_hp_dnn_0.4_cat_10_n02124075_7119.png
cornet-s,1,106,NaN,clock,cat,0.4,0106_hp_dnn_0.4_cat_10_n02123159_6428.png
cornet-s,1,107,NaN,clock,cat,0.4,0107_hp_dnn_0.4_cat_10_n02123045_4126.png
cornet-s,1,108,NaN,clock,cat,0.4,0108_hp_dnn_0.4_cat_10_n02123597_5225.png
cornet-s,1,109,NaN,clock,cat,0.4,0109_hp_dnn_0.4_cat_10_n02123597_13429.png
cornet-s,1,110,NaN,clock,cat,0.4,0110_hp_dnn_0.4_cat_10_n02125311_51723.png
cornet-s,1,111,NaN,knife,bottle,0.4,0111_hp_dnn_0.4_bottle_10_n04557648_8823.png
cornet-s,1,112,NaN,knife,bottle,0.4,0112_hp_dnn_0.4_bottle_10_n03937543_1231.png
cornet-s,1,113,NaN,knife,bottle,0.4,0113_hp_dnn_0.4_bottle_10_n04579145_7117.png
cornet-s,1,114,NaN,clock,bottle,0.4,0114_hp_dnn_0.4_bottle_10_n02823428_1781.png
cornet-s,1,115,NaN,clock,bottle,0.4,0115_hp_dnn_0.4_bottle_10_n04560804_25067.png
cornet-s,1,116,NaN,clock,bottle,0.4,0116_hp_dnn_0.4_bottle_10_n04591713_7141.png
cornet-s,1,117,NaN,clock,bottle,0.4,0117_hp_dnn_0.4_bottle_10_n04557648_8958.png
cornet-s,1,118,NaN,clock,bottle,0.4,0118_hp_dnn_0.4_bottle_10_n03983396_21188.png
cornet-s,1,119,NaN,clock,bottle,0.4,0119_hp_dnn_0.4_bottle_10_n02823428_706.png
cornet-s,1,120,NaN,knife,bottle,0.4,0120_hp_dnn_0.4_bottle_10_n03937543_1387.png
cornet-s,1,121,NaN,clock,truck,0.4,0121_hp_dnn_0.4_truck_10_n03796401_1679.png
cornet-s,1,122,NaN,clock,truck,0.4,0122_hp_dnn_0.4_truck_10_n03417042_9021.png
cornet-s,1,123,NaN,clock,truck,0.4,0123_hp_dnn_0.4_truck_10_n03417042_6654.png
cornet-s,1,124,NaN,clock,truck,0.4,0124_hp_dnn_0.4_truck_10_n03417042_7588.png
cornet-s,1,125,NaN,knife,truck,0.4,0125_hp_dnn_0.4_truck_10_n03796401_20379.png
cornet-s,1,126,NaN,clock,truck,0.4,0126_hp_dnn_0.4_truck_10_n03796401_6485.png
cornet-s,1,127,NaN,clock,truck,0.4,0127_hp_dnn_0.4_truck_10_n03417042_27404.png
cornet-s,1,128,NaN,clock,truck,0.4,0128_hp_dnn_0.4_truck_10_n04467665_23680.png
cornet-s,1,129,NaN,clock,truck,0.4,0129_hp_dnn_0.4_truck_10_n03796401_7160.png
cornet-s,1,130,NaN,clock,truck,0.4,0130_hp_dnn_0.4_truck_10_n03417042_4407.png
cornet-s,1,131,NaN,airplane,car,0.4,0131_hp_dnn_0.4_car_10_n03100240_961.png
cornet-s,1,132,NaN,knife,car,0.4,0132_hp_dnn_0.4_car_10_n04285008_822.png
cornet-s,1,133,NaN,airplane,car,0.4,0133_hp_dnn_0.4_car_10_n02814533_74986.png
cornet-s,1,134,NaN,clock,car,0.4,0134_hp_dnn_0.4_car_10_n03100240_1171.png
cornet-s,1,135,NaN,clock,car,0.4,0135_hp_dnn_0.4_car_10_n04285008_14073.png
cornet-s,1,136,NaN,clock,car,0.4,0136_hp_dnn_0.4_car_10_n04285008_4766.png
cornet-s,1,137,NaN,clock,car,0.4,0137_hp_dnn_0.4_car_10_n02814533_59053.png
cornet-s,1,138,NaN,clock,car,0.4,0138_hp_dnn_0.4_car_10_n03100240_8859.png
cornet-s,1,139,NaN,clock,car,0.4,0139_hp_dnn_0.4_car_10_n03100240_7278.png
cornet-s,1,140,NaN,clock,car,0.4,0140_hp_dnn_0.4_car_10_n03100240_21243.png
cornet-s,1,141,NaN,airplane,bird,0.4,0141_hp_dnn_0.4_bird_10_n02006656_6729.png
cornet-s,1,142,NaN,clock,bird,0.4,0142_hp_dnn_0.4_bird_10_n02056570_5158.png
cornet-s,1,143,NaN,clock,bird,0.4,0143_hp_dnn_0.4_bird_10_n02002724_2601.png
cornet-s,1,144,NaN,clock,bird,0.4,0144_hp_dnn_0.4_bird_10_n01820546_4627.png
cornet-s,1,145,NaN,clock,bird,0.4,0145_hp_dnn_0.4_bird_10_n02013706_2465.png
cornet-s,1,146,NaN,clock,bird,0.4,0146_hp_dnn_0.4_bird_10_n01558993_14526.png
cornet-s,1,147,NaN,clock,bird,0.4,0147_hp_dnn_0.4_bird_10_n01616318_8013.png
cornet-s,1,148,NaN,cat,bird,0.4,0148_hp_dnn_0.4_bird_10_n02051845_328.png
cornet-s,1,149,NaN,airplane,bird,0.4,0149_hp_dnn_0.4_bird_10_n02033041_15732.png
cornet-s,1,150,NaN,clock,bird,0.4,0150_hp_dnn_0.4_bird_10_n01798484_16204.png
cornet-s,1,151,NaN,clock,dog,0.4,0151_hp_dnn_0.4_dog_10_n02100735_5508.png
cornet-s,1,152,NaN,clock,dog,0.4,0152_hp_dnn_0.4_dog_10_n02094258_1138.png
cornet-s,1,153,NaN,clock,dog,0.4,0153_hp_dnn_0.4_dog_10_n02113712_13600.png
cornet-s,1,154,NaN,clock,dog,0.4,0154_hp_dnn_0.4_dog_10_n02110958_12860.png
cornet-s,1,155,NaN,clock,dog,0.4,0155_hp_dnn_0.4_dog_10_n02112018_5483.png
cornet-s,1,156,NaN,clock,dog,0.4,0156_hp_dnn_0.4_dog_10_n02109525_10038.png
cornet-s,1,157,NaN,clock,dog,0.4,0157_hp_dnn_0.4_dog_10_n02092339_6659.png
cornet-s,1,158,NaN,clock,dog,0.4,0158_hp_dnn_0.4_dog_10_n02097130_12198.png
cornet-s,1,159,NaN,clock,dog,0.4,0159_hp_dnn_0.4_dog_10_n02097298_4090.png
cornet-s,1,160,NaN,clock,dog,0.4,0160_hp_dnn_0.4_dog_10_n02110063_4109.png
cornet-s,1,161,NaN,airplane,knife,0.45,0161_hp_dnn_0.45_knife_10_n03041632_33739.png
cornet-s,1,162,NaN,knife,knife,0.45,0162_hp_dnn_0.45_knife_10_n03041632_21017.png
cornet-s,1,163,NaN,airplane,knife,0.45,0163_hp_dnn_0.45_knife_10_n03041632_21034.png
cornet-s,1,164,NaN,airplane,knife,0.45,0164_hp_dnn_0.45_knife_10_n03041632_29862.png
cornet-s,1,165,NaN,clock,knife,0.45,0165_hp_dnn_0.45_knife_10_n03041632_25479.png
cornet-s,1,166,NaN,clock,knife,0.45,0166_hp_dnn_0.45_knife_10_n03041632_11186.png
cornet-s,1,167,NaN,clock,knife,0.45,0167_hp_dnn_0.45_knife_10_n03041632_28129.png
cornet-s,1,168,NaN,clock,knife,0.45,0168_hp_dnn_0.45_knife_10_n03041632_99460.png
cornet-s,1,169,NaN,clock,knife,0.45,0169_hp_dnn_0.45_knife_10_n03041632_5162.png
cornet-s,1,170,NaN,clock,knife,0.45,0170_hp_dnn_0.45_knife_10_n03041632_992.png
cornet-s,1,171,NaN,clock,keyboard,0.45,0171_hp_dnn_0.45_keyboard_10_n04505470_8148.png
cornet-s,1,172,NaN,clock,keyboard,0.45,0172_hp_dnn_0.45_keyboard_10_n04505470_713.png
cornet-s,1,173,NaN,clock,keyboard,0.45,0173_hp_dnn_0.45_keyboard_10_n03085013_21649.png
cornet-s,1,174,NaN,clock,keyboard,0.45,0174_hp_dnn_0.45_keyboard_10_n03085013_21492.png
cornet-s,1,175,NaN,clock,keyboard,0.45,0175_hp_dnn_0.45_keyboard_10_n04505470_4595.png
cornet-s,1,176,NaN,clock,keyboard,0.45,0176_hp_dnn_0.45_keyboard_10_n04505470_2797.png
cornet-s,1,177,NaN,clock,keyboard,0.45,0177_hp_dnn_0.45_keyboard_10_n04505470_2603.png
cornet-s,1,178,NaN,clock,keyboard,0.45,0178_hp_dnn_0.45_keyboard_10_n03085013_23769.png
cornet-s,1,179,NaN,knife,keyboard,0.45,0179_hp_dnn_0.45_keyboard_10_n04505470_6421.png
cornet-s,1,180,NaN,clock,keyboard,0.45,0180_hp_dnn_0.45_keyboard_10_n03085013_20757.png
cornet-s,1,181,NaN,clock,elephant,0.45,0181_hp_dnn_0.45_elephant_10_n02504458_5313.png
cornet-s,1,182,NaN,clock,elephant,0.45,0182_hp_dnn_0.45_elephant_10_n02504013_1165.png
cornet-s,1,183,NaN,clock,elephant,0.45,0183_hp_dnn_0.45_elephant_10_n02504458_7857.png
cornet-s,1,184,NaN,clock,elephant,0.45,0184_hp_dnn_0.45_elephant_10_n02504458_381.png
cornet-s,1,185,NaN,clock,elephant,0.45,0185_hp_dnn_0.45_elephant_10_n02504458_4401.png
cornet-s,1,186,NaN,clock,elephant,0.45,0186_hp_dnn_0.45_elephant_10_n02504013_1534.png
cornet-s,1,187,NaN,clock,elephant,0.45,0187_hp_dnn_0.45_elephant_10_n02504458_3364.png
cornet-s,1,188,NaN,clock,elephant,0.45,0188_hp_dnn_0.45_elephant_10_n02504458_11353.png
cornet-s,1,189,NaN,clock,elephant,0.45,0189_hp_dnn_0.45_elephant_10_n02504013_7477.png
cornet-s,1,190,NaN,clock,elephant,0.45,0190_hp_dnn_0.45_elephant_10_n02504013_5424.png
cornet-s,1,191,NaN,clock,bicycle,0.45,0191_hp_dnn_0.45_bicycle_10_n03792782_19116.png
cornet-s,1,192,NaN,clock,bicycle,0.45,0192_hp_dnn_0.45_bicycle_10_n03792782_3730.png
cornet-s,1,193,NaN,clock,bicycle,0.45,0193_hp_dnn_0.45_bicycle_10_n03792782_28118.png
cornet-s,1,194,NaN,clock,bicycle,0.45,0194_hp_dnn_0.45_bicycle_10_n03792782_14413.png
cornet-s,1,195,NaN,clock,bicycle,0.45,0195_hp_dnn_0.45_bicycle_10_n02835271_7351.png
cornet-s,1,196,NaN,knife,bicycle,0.45,0196_hp_dnn_0.45_bicycle_10_n03792782_4467.png
cornet-s,1,197,NaN,knife,bicycle,0.45,0197_hp_dnn_0.45_bicycle_10_n03792782_9183.png
cornet-s,1,198,NaN,clock,bicycle,0.45,0198_hp_dnn_0.45_bicycle_10_n03792782_5419.png
cornet-s,1,199,NaN,knife,bicycle,0.45,0199_hp_dnn_0.45_bicycle_10_n02835271_18105.png
cornet-s,1,200,NaN,clock,bicycle,0.45,0200_hp_dnn_0.45_bicycle_10_n03792782_28168.png
cornet-s,1,201,NaN,airplane,airplane,0.45,0201_hp_dnn_0.45_airplane_10_n02690373_4410.png
cornet-s,1,202,NaN,knife,airplane,0.45,0202_hp_dnn_0.45_airplane_10_n02690373_2935.png
cornet-s,1,203,NaN,knife,airplane,0.45,0203_hp_dnn_0.45_airplane_10_n02690373_6992.png
cornet-s,1,204,NaN,airplane,airplane,0.45,0204_hp_dnn_0.45_airplane_10_n02690373_1019.png
cornet-s,1,205,NaN,knife,airplane,0.45,0205_hp_dnn_0.45_airplane_10_n02690373_10006.png
cornet-s,1,206,NaN,airplane,airplane,0.45,0206_hp_dnn_0.45_airplane_10_n02690373_1828.png
cornet-s,1,207,NaN,airplane,airplane,0.45,0207_hp_dnn_0.45_airplane_10_n02690373_7210.png
cornet-s,1,208,NaN,knife,airplane,0.45,0208_hp_dnn_0.45_airplane_10_n02690373_9759.png
cornet-s,1,209,NaN,knife,airplane,0.45,0209_hp_dnn_0.45_airplane_10_n02690373_7279.png
cornet-s,1,210,NaN,knife,airplane,0.45,0210_hp_dnn_0.45_airplane_10_n02690373_8524.png
cornet-s,1,211,NaN,knife,clock,0.45,0211_hp_dnn_0.45_clock_10_n03196217_11972.png
cornet-s,1,212,NaN,clock,clock,0.45,0212_hp_dnn_0.45_clock_10_n02708093_2469.png
cornet-s,1,213,NaN,clock,clock,0.45,0213_hp_dnn_0.45_clock_10_n03196217_454.png
cornet-s,1,214,NaN,knife,clock,0.45,0214_hp_dnn_0.45_clock_10_n04548280_3305.png
cornet-s,1,215,NaN,clock,clock,0.45,0215_hp_dnn_0.45_clock_10_n02708093_2549.png
cornet-s,1,216,NaN,knife,clock,0.45,0216_hp_dnn_0.45_clock_10_n04548280_17198.png
cornet-s,1,217,NaN,clock,clock,0.45,0217_hp_dnn_0.45_clock_10_n04548280_7885.png
cornet-s,1,218,NaN,clock,clock,0.45,0218_hp_dnn_0.45_clock_10_n04548280_5039.png
cornet-s,1,219,NaN,clock,clock,0.45,0219_hp_dnn_0.45_clock_10_n03196217_886.png
cornet-s,1,220,NaN,clock,clock,0.45,0220_hp_dnn_0.45_clock_10_n04548280_7539.png
cornet-s,1,221,NaN,clock,oven,0.45,0221_hp_dnn_0.45_oven_10_n04111531_4750.png
cornet-s,1,222,NaN,clock,oven,0.45,0222_hp_dnn_0.45_oven_10_n04111531_8723.png
cornet-s,1,223,NaN,clock,oven,0.45,0223_hp_dnn_0.45_oven_10_n04111531_8036.png
cornet-s,1,224,NaN,clock,oven,0.45,0224_hp_dnn_0.45_oven_10_n04111531_2027.png
cornet-s,1,225,NaN,clock,oven,0.45,0225_hp_dnn_0.45_oven_10_n04111531_2592.png
cornet-s,1,226,NaN,knife,oven,0.45,0226_hp_dnn_0.45_oven_10_n04111531_9702.png
cornet-s,1,227,NaN,clock,oven,0.45,0227_hp_dnn_0.45_oven_10_n04111531_20591.png
cornet-s,1,228,NaN,clock,oven,0.45,0228_hp_dnn_0.45_oven_10_n04111531_14871.png
cornet-s,1,229,NaN,clock,oven,0.45,0229_hp_dnn_0.45_oven_10_n04111531_627.png
cornet-s,1,230,NaN,clock,oven,0.45,0230_hp_dnn_0.45_oven_10_n04111531_172.png
cornet-s,1,231,NaN,clock,chair,0.45,0231_hp_dnn_0.45_chair_10_n04429376_5134.png
cornet-s,1,232,NaN,clock,chair,0.45,0232_hp_dnn_0.45_chair_10_n04429376_2349.png
cornet-s,1,233,NaN,clock,chair,0.45,0233_hp_dnn_0.45_chair_10_n04429376_9691.png
cornet-s,1,234,NaN,chair,chair,0.45,0234_hp_dnn_0.45_chair_10_n03376595_7178.png
cornet-s,1,235,NaN,clock,chair,0.45,0235_hp_dnn_0.45_chair_10_n02791124_2383.png
cornet-s,1,236,NaN,clock,chair,0.45,0236_hp_dnn_0.45_chair_10_n03376595_9535.png
cornet-s,1,237,NaN,clock,chair,0.45,0237_hp_dnn_0.45_chair_10_n04429376_18606.png
cornet-s,1,238,NaN,clock,chair,0.45,0238_hp_dnn_0.45_chair_10_n04429376_7321.png
cornet-s,1,239,NaN,clock,chair,0.45,0239_hp_dnn_0.45_chair_10_n03376595_10926.png
cornet-s,1,240,NaN,clock,chair,0.45,0240_hp_dnn_0.45_chair_10_n03376595_10273.png
cornet-s,1,241,NaN,clock,bear,0.45,0241_hp_dnn_0.45_bear_10_n02132136_8248.png
cornet-s,1,242,NaN,clock,bear,0.45,0242_hp_dnn_0.45_bear_10_n02132136_7754.png
cornet-s,1,243,NaN,clock,bear,0.45,0243_hp_dnn_0.45_bear_10_n02134084_2104.png
cornet-s,1,244,NaN,clock,bear,0.45,0244_hp_dnn_0.45_bear_10_n02132136_6387.png
cornet-s,1,245,NaN,clock,bear,0.45,0245_hp_dnn_0.45_bear_10_n02134084_16084.png
cornet-s,1,246,NaN,clock,bear,0.45,0246_hp_dnn_0.45_bear_10_n02132136_9182.png
cornet-s,1,247,NaN,clock,bear,0.45,0247_hp_dnn_0.45_bear_10_n02134418_2869.png
cornet-s,1,248,NaN,clock,bear,0.45,0248_hp_dnn_0.45_bear_10_n02134084_1999.png
cornet-s,1,249,NaN,clock,bear,0.45,0249_hp_dnn_0.45_bear_10_n02132136_2198.png
cornet-s,1,250,NaN,clock,bear,0.45,0250_hp_dnn_0.45_bear_10_n02132136_2807.png
cornet-s,1,251,NaN,clock,boat,0.45,0251_hp_dnn_0.45_boat_10_n03344393_7532.png
cornet-s,1,252,NaN,knife,boat,0.45,0252_hp_dnn_0.45_boat_10_n03662601_34510.png
cornet-s,1,253,NaN,clock,boat,0.45,0253_hp_dnn_0.45_boat_10_n02951358_4479.png
cornet-s,1,254,NaN,clock,boat,0.45,0254_hp_dnn_0.45_boat_10_n03344393_1285.png
cornet-s,1,255,NaN,clock,boat,0.45,0255_hp_dnn_0.45_boat_10_n02951358_30504.png
cornet-s,1,256,NaN,clock,boat,0.45,0256_hp_dnn_0.45_boat_10_n04612504_18954.png
cornet-s,1,257,NaN,clock,boat,0.45,0257_hp_dnn_0.45_boat_10_n03344393_10748.png
cornet-s,1,258,NaN,clock,boat,0.45,0258_hp_dnn_0.45_boat_10_n04612504_4204.png
cornet-s,1,259,NaN,clock,boat,0.45,0259_hp_dnn_0.45_boat_10_n04273569_24747.png
cornet-s,1,260,NaN,clock,boat,0.45,0260_hp_dnn_0.45_boat_10_n03662601_33398.png
cornet-s,1,261,NaN,clock,cat,0.45,0261_hp_dnn_0.45_cat_10_n02125311_14449.png
cornet-s,1,262,NaN,clock,cat,0.45,0262_hp_dnn_0.45_cat_10_n02125311_19548.png
cornet-s,1,263,NaN,clock,cat,0.45,0263_hp_dnn_0.45_cat_10_n02123597_203.png
cornet-s,1,264,NaN,clock,cat,0.45,0264_hp_dnn_0.45_cat_10_n02123045_9170.png
cornet-s,1,265,NaN,clock,cat,0.45,0265_hp_dnn_0.45_cat_10_n02123045_12966.png
cornet-s,1,266,NaN,clock,cat,0.45,0266_hp_dnn_0.45_cat_10_n02124075_6286.png
cornet-s,1,267,NaN,clock,cat,0.45,0267_hp_dnn_0.45_cat_10_n02124075_11652.png
cornet-s,1,268,NaN,clock,cat,0.45,0268_hp_dnn_0.45_cat_10_n02123597_11283.png
cornet-s,1,269,NaN,clock,cat,0.45,0269_hp_dnn_0.45_cat_10_n02123394_3874.png
cornet-s,1,270,NaN,clock,cat,0.45,0270_hp_dnn_0.45_cat_10_n02123394_686.png
cornet-s,1,271,NaN,clock,bottle,0.45,0271_hp_dnn_0.45_bottle_10_n04557648_3308.png
cornet-s,1,272,NaN,knife,bottle,0.45,0272_hp_dnn_0.45_bottle_10_n03983396_16825.png
cornet-s,1,273,NaN,knife,bottle,0.45,0273_hp_dnn_0.45_bottle_10_n03983396_10364.png
cornet-s,1,274,NaN,clock,bottle,0.45,0274_hp_dnn_0.45_bottle_10_n04557648_6515.png
cornet-s,1,275,NaN,clock,bottle,0.45,0275_hp_dnn_0.45_bottle_10_n02823428_14980.png
cornet-s,1,276,NaN,clock,bottle,0.45,0276_hp_dnn_0.45_bottle_10_n03983396_12980.png
cornet-s,1,277,NaN,clock,bottle,0.45,0277_hp_dnn_0.45_bottle_10_n04557648_680.png
cornet-s,1,278,NaN,knife,bottle,0.45,0278_hp_dnn_0.45_bottle_10_n03983396_14326.png
cornet-s,1,279,NaN,clock,bottle,0.45,0279_hp_dnn_0.45_bottle_10_n02823428_8257.png
cornet-s,1,280,NaN,knife,bottle,0.45,0280_hp_dnn_0.45_bottle_10_n03937543_1341.png
cornet-s,1,281,NaN,clock,truck,0.45,0281_hp_dnn_0.45_truck_10_n04467665_23695.png
cornet-s,1,282,NaN,clock,truck,0.45,0282_hp_dnn_0.45_truck_10_n03417042_17215.png
cornet-s,1,283,NaN,clock,truck,0.45,0283_hp_dnn_0.45_truck_10_n03417042_22196.png
cornet-s,1,284,NaN,knife,truck,0.45,0284_hp_dnn_0.45_truck_10_n03417042_22828.png
cornet-s,1,285,NaN,clock,truck,0.45,0285_hp_dnn_0.45_truck_10_n04467665_52709.png
cornet-s,1,286,NaN,knife,truck,0.45,0286_hp_dnn_0.45_truck_10_n03417042_3216.png
cornet-s,1,287,NaN,airplane,truck,0.45,0287_hp_dnn_0.45_truck_10_n04467665_55374.png
cornet-s,1,288,NaN,knife,truck,0.45,0288_hp_dnn_0.45_truck_10_n04467665_4037.png
cornet-s,1,289,NaN,knife,truck,0.45,0289_hp_dnn_0.45_truck_10_n04467665_4791.png
cornet-s,1,290,NaN,clock,truck,0.45,0290_hp_dnn_0.45_truck_10_n03417042_1651.png
cornet-s,1,291,NaN,knife,car,0.45,0291_hp_dnn_0.45_car_10_n02814533_4449.png
cornet-s,1,292,NaN,clock,car,0.45,0292_hp_dnn_0.45_car_10_n04285008_5114.png
cornet-s,1,293,NaN,clock,car,0.45,0293_hp_dnn_0.45_car_10_n04285008_10539.png
cornet-s,1,294,NaN,clock,car,0.45,0294_hp_dnn_0.45_car_10_n03100240_6954.png
cornet-s,1,295,NaN,clock,car,0.45,0295_hp_dnn_0.45_car_10_n04285008_5788.png
cornet-s,1,296,NaN,clock,car,0.45,0296_hp_dnn_0.45_car_10_n03100240_6029.png
cornet-s,1,297,NaN,knife,car,0.45,0297_hp_dnn_0.45_car_10_n02814533_2308.png
cornet-s,1,298,NaN,clock,car,0.45,0298_hp_dnn_0.45_car_10_n02814533_6817.png
cornet-s,1,299,NaN,clock,car,0.45,0299_hp_dnn_0.45_car_10_n03100240_20698.png
cornet-s,1,300,NaN,clock,car,0.45,0300_hp_dnn_0.45_car_10_n03100240_6979.png
cornet-s,1,301,NaN,clock,bird,0.45,0301_hp_dnn_0.45_bird_10_n01818515_2907.png
cornet-s,1,302,NaN,clock,bird,0.45,0302_hp_dnn_0.45_bird_10_n02013706_7206.png
cornet-s,1,303,NaN,clock,bird,0.45,0303_hp_dnn_0.45_bird_10_n01817953_6503.png
cornet-s,1,304,NaN,airplane,bird,0.45,0304_hp_dnn_0.45_bird_10_n01531178_16486.png
cornet-s,1,305,NaN,clock,bird,0.45,0305_hp_dnn_0.45_bird_10_n01616318_2056.png
cornet-s,1,306,NaN,clock,bird,0.45,0306_hp_dnn_0.45_bird_10_n01514859_2419.png
cornet-s,1,307,NaN,clock,bird,0.45,0307_hp_dnn_0.45_bird_10_n01855672_9158.png
cornet-s,1,308,NaN,clock,bird,0.45,0308_hp_dnn_0.45_bird_10_n01582220_5675.png
cornet-s,1,309,NaN,clock,bird,0.45,0309_hp_dnn_0.45_bird_10_n01514859_8834.png
cornet-s,1,310,NaN,clock,bird,0.45,0310_hp_dnn_0.45_bird_10_n02018795_15073.png
cornet-s,1,311,NaN,clock,dog,0.45,0311_hp_dnn_0.45_dog_10_n02106166_135.png
cornet-s,1,312,NaN,clock,dog,0.45,0312_hp_dnn_0.45_dog_10_n02107908_2340.png
cornet-s,1,313,NaN,clock,dog,0.45,0313_hp_dnn_0.45_dog_10_n02093647_7959.png
cornet-s,1,314,NaN,clock,dog,0.45,0314_hp_dnn_0.45_dog_10_n02101388_3811.png
cornet-s,1,315,NaN,clock,dog,0.45,0315_hp_dnn_0.45_dog_10_n02096051_422.png
cornet-s,1,316,NaN,clock,dog,0.45,0316_hp_dnn_0.45_dog_10_n02102040_8296.png
cornet-s,1,317,NaN,clock,dog,0.45,0317_hp_dnn_0.45_dog_10_n02100735_693.png
cornet-s,1,318,NaN,clock,dog,0.45,0318_hp_dnn_0.45_dog_10_n02106550_764.png
cornet-s,1,319,NaN,clock,dog,0.45,0319_hp_dnn_0.45_dog_10_n02095314_4226.png
cornet-s,1,320,NaN,clock,dog,0.45,0320_hp_dnn_0.45_dog_10_n02100583_1956.png
cornet-s,1,321,NaN,clock,knife,0.55,0321_hp_dnn_0.55_knife_10_n03041632_12242.png
cornet-s,1,322,NaN,clock,knife,0.55,0322_hp_dnn_0.55_knife_10_n03041632_36280.png
cornet-s,1,323,NaN,clock,knife,0.55,0323_hp_dnn_0.55_knife_10_n03041632_45622.png
cornet-s,1,324,NaN,clock,knife,0.55,0324_hp_dnn_0.55_knife_10_n03041632_1006.png
cornet-s,1,325,NaN,clock,knife,0.55,0325_hp_dnn_0.55_knife_10_n03041632_18859.png
cornet-s,1,326,NaN,knife,knife,0.55,0326_hp_dnn_0.55_knife_10_n03041632_24277.png
cornet-s,1,327,NaN,knife,knife,0.55,0327_hp_dnn_0.55_knife_10_n03041632_42196.png
cornet-s,1,328,NaN,clock,knife,0.55,0328_hp_dnn_0.55_knife_10_n03041632_14132.png
cornet-s,1,329,NaN,knife,knife,0.55,0329_hp_dnn_0.55_knife_10_n03041632_13645.png
cornet-s,1,330,NaN,bottle,knife,0.55,0330_hp_dnn_0.55_knife_10_n03041632_3617.png
cornet-s,1,331,NaN,clock,keyboard,0.55,0331_hp_dnn_0.55_keyboard_10_n03085013_3489.png
cornet-s,1,332,NaN,clock,keyboard,0.55,0332_hp_dnn_0.55_keyboard_10_n03085013_23904.png
cornet-s,1,333,NaN,clock,keyboard,0.55,0333_hp_dnn_0.55_keyboard_10_n03085013_22069.png
cornet-s,1,334,NaN,clock,keyboard,0.55,0334_hp_dnn_0.55_keyboard_10_n03085013_26449.png
cornet-s,1,335,NaN,knife,keyboard,0.55,0335_hp_dnn_0.55_keyboard_10_n04505470_2446.png
cornet-s,1,336,NaN,keyboard,keyboard,0.55,0336_hp_dnn_0.55_keyboard_10_n03085013_24399.png
cornet-s,1,337,NaN,clock,keyboard,0.55,0337_hp_dnn_0.55_keyboard_10_n03085013_22686.png
cornet-s,1,338,NaN,clock,keyboard,0.55,0338_hp_dnn_0.55_keyboard_10_n03085013_11110.png
cornet-s,1,339,NaN,clock,keyboard,0.55,0339_hp_dnn_0.55_keyboard_10_n04505470_4507.png
cornet-s,1,340,NaN,knife,keyboard,0.55,0340_hp_dnn_0.55_keyboard_10_n04505470_5060.png
cornet-s,1,341,NaN,clock,elephant,0.55,0341_hp_dnn_0.55_elephant_10_n02504458_12368.png
cornet-s,1,342,NaN,clock,elephant,0.55,0342_hp_dnn_0.55_elephant_10_n02504458_1302.png
cornet-s,1,343,NaN,clock,elephant,0.55,0343_hp_dnn_0.55_elephant_10_n02504013_6303.png
cornet-s,1,344,NaN,clock,elephant,0.55,0344_hp_dnn_0.55_elephant_10_n02504458_150.png
cornet-s,1,345,NaN,clock,elephant,0.55,0345_hp_dnn_0.55_elephant_10_n02504013_2342.png
cornet-s,1,346,NaN,clock,elephant,0.55,0346_hp_dnn_0.55_elephant_10_n02504458_2237.png
cornet-s,1,347,NaN,knife,elephant,0.55,0347_hp_dnn_0.55_elephant_10_n02504013_3916.png
cornet-s,1,348,NaN,clock,elephant,0.55,0348_hp_dnn_0.55_elephant_10_n02504013_9301.png
cornet-s,1,349,NaN,clock,elephant,0.55,0349_hp_dnn_0.55_elephant_10_n02504013_474.png
cornet-s,1,350,NaN,clock,elephant,0.55,0350_hp_dnn_0.55_elephant_10_n02504013_559.png
cornet-s,1,351,NaN,clock,bicycle,0.55,0351_hp_dnn_0.55_bicycle_10_n03792782_16169.png
cornet-s,1,352,NaN,clock,bicycle,0.55,0352_hp_dnn_0.55_bicycle_10_n03792782_3067.png
cornet-s,1,353,NaN,knife,bicycle,0.55,0353_hp_dnn_0.55_bicycle_10_n03792782_2793.png
cornet-s,1,354,NaN,clock,bicycle,0.55,0354_hp_dnn_0.55_bicycle_10_n02835271_8757.png
cornet-s,1,355,NaN,clock,bicycle,0.55,0355_hp_dnn_0.55_bicycle_10_n03792782_3705.png
cornet-s,1,356,NaN,clock,bicycle,0.55,0356_hp_dnn_0.55_bicycle_10_n02835271_6539.png
cornet-s,1,357,NaN,clock,bicycle,0.55,0357_hp_dnn_0.55_bicycle_10_n02835271_31.png
cornet-s,1,358,NaN,knife,bicycle,0.55,0358_hp_dnn_0.55_bicycle_10_n03792782_5209.png
cornet-s,1,359,NaN,clock,bicycle,0.55,0359_hp_dnn_0.55_bicycle_10_n02835271_10910.png
cornet-s,1,360,NaN,clock,bicycle,0.55,0360_hp_dnn_0.55_bicycle_10_n02835271_6475.png
cornet-s,1,361,NaN,knife,airplane,0.55,0361_hp_dnn_0.55_airplane_10_n02690373_9926.png
cornet-s,1,362,NaN,knife,airplane,0.55,0362_hp_dnn_0.55_airplane_10_n02690373_9991.png
cornet-s,1,363,NaN,airplane,airplane,0.55,0363_hp_dnn_0.55_airplane_10_n02690373_7281.png
cornet-s,1,364,NaN,knife,airplane,0.55,0364_hp_dnn_0.55_airplane_10_n02690373_9059.png
cornet-s,1,365,NaN,knife,airplane,0.55,0365_hp_dnn_0.55_airplane_10_n02690373_1829.png
cornet-s,1,366,NaN,knife,airplane,0.55,0366_hp_dnn_0.55_airplane_10_n02690373_10176.png
cornet-s,1,367,NaN,knife,airplane,0.55,0367_hp_dnn_0.55_airplane_10_n02690373_2716.png
cornet-s,1,368,NaN,knife,airplane,0.55,0368_hp_dnn_0.55_airplane_10_n02690373_3860.png
cornet-s,1,369,NaN,airplane,airplane,0.55,0369_hp_dnn_0.55_airplane_10_n02690373_2128.png
cornet-s,1,370,NaN,clock,airplane,0.55,0370_hp_dnn_0.55_airplane_10_n02690373_9247.png
cornet-s,1,371,NaN,knife,clock,0.55,0371_hp_dnn_0.55_clock_10_n04548280_4073.png
cornet-s,1,372,NaN,clock,clock,0.55,0372_hp_dnn_0.55_clock_10_n03196217_6809.png
cornet-s,1,373,NaN,clock,clock,0.55,0373_hp_dnn_0.55_clock_10_n02708093_3399.png
cornet-s,1,374,NaN,clock,clock,0.55,0374_hp_dnn_0.55_clock_10_n02708093_170.png
cornet-s,1,375,NaN,clock,clock,0.55,0375_hp_dnn_0.55_clock_10_n04548280_2404.png
cornet-s,1,376,NaN,clock,clock,0.55,0376_hp_dnn_0.55_clock_10_n04548280_5309.png
cornet-s,1,377,NaN,airplane,clock,0.55,0377_hp_dnn_0.55_clock_10_n03196217_3039.png
cornet-s,1,378,NaN,clock,clock,0.55,0378_hp_dnn_0.55_clock_10_n04548280_5299.png
cornet-s,1,379,NaN,clock,clock,0.55,0379_hp_dnn_0.55_clock_10_n04548280_2.png
cornet-s,1,380,NaN,clock,clock,0.55,0380_hp_dnn_0.55_clock_10_n04548280_3458.png
cornet-s,1,381,NaN,clock,oven,0.55,0381_hp_dnn_0.55_oven_10_n04111531_14913.png
cornet-s,1,382,NaN,clock,oven,0.55,0382_hp_dnn_0.55_oven_10_n04111531_5927.png
cornet-s,1,383,NaN,clock,oven,0.55,0383_hp_dnn_0.55_oven_10_n04111531_8344.png
cornet-s,1,384,NaN,clock,oven,0.55,0384_hp_dnn_0.55_oven_10_n04111531_10664.png
cornet-s,1,385,NaN,clock,oven,0.55,0385_hp_dnn_0.55_oven_10_n04111531_8812.png
cornet-s,1,386,NaN,clock,oven,0.55,0386_hp_dnn_0.55_oven_10_n04111531_19631.png
cornet-s,1,387,NaN,clock,oven,0.55,0387_hp_dnn_0.55_oven_10_n04111531_4346.png
cornet-s,1,388,NaN,knife,oven,0.55,0388_hp_dnn_0.55_oven_10_n04111531_4452.png
cornet-s,1,389,NaN,clock,oven,0.55,0389_hp_dnn_0.55_oven_10_n04111531_21208.png
cornet-s,1,390,NaN,clock,oven,0.55,0390_hp_dnn_0.55_oven_10_n04111531_1442.png
cornet-s,1,391,NaN,knife,chair,0.55,0391_hp_dnn_0.55_chair_10_n04429376_6242.png
cornet-s,1,392,NaN,chair,chair,0.55,0392_hp_dnn_0.55_chair_10_n04099969_15060.png
cornet-s,1,393,NaN,clock,chair,0.55,0393_hp_dnn_0.55_chair_10_n02791124_984.png
cornet-s,1,394,NaN,clock,chair,0.55,0394_hp_dnn_0.55_chair_10_n03376595_7515.png
cornet-s,1,395,NaN,clock,chair,0.55,0395_hp_dnn_0.55_chair_10_n04429376_7621.png
cornet-s,1,396,NaN,clock,chair,0.55,0396_hp_dnn_0.55_chair_10_n04099969_7274.png
cornet-s,1,397,NaN,knife,chair,0.55,0397_hp_dnn_0.55_chair_10_n02791124_12832.png
cornet-s,1,398,NaN,clock,chair,0.55,0398_hp_dnn_0.55_chair_10_n04429376_7439.png
cornet-s,1,399,NaN,chair,chair,0.55,0399_hp_dnn_0.55_chair_10_n04429376_25432.png
cornet-s,1,400,NaN,clock,chair,0.55,0400_hp_dnn_0.55_chair_10_n03376595_68.png
cornet-s,1,401,NaN,clock,bear,0.55,0401_hp_dnn_0.55_bear_10_n02134418_5033.png
cornet-s,1,402,NaN,clock,bear,0.55,0402_hp_dnn_0.55_bear_10_n02134418_2746.png
cornet-s,1,403,NaN,clock,bear,0.55,0403_hp_dnn_0.55_bear_10_n02134084_1938.png
cornet-s,1,404,NaN,clock,bear,0.55,0404_hp_dnn_0.55_bear_10_n02134418_3551.png
cornet-s,1,405,NaN,clock,bear,0.55,0405_hp_dnn_0.55_bear_10_n02133161_1346.png
cornet-s,1,406,NaN,clock,bear,0.55,0406_hp_dnn_0.55_bear_10_n02134084_3144.png
cornet-s,1,407,NaN,clock,bear,0.55,0407_hp_dnn_0.55_bear_10_n02134084_7622.png
cornet-s,1,408,NaN,clock,bear,0.55,0408_hp_dnn_0.55_bear_10_n02134084_18611.png
cornet-s,1,409,NaN,clock,bear,0.55,0409_hp_dnn_0.55_bear_10_n02134084_6780.png
cornet-s,1,410,NaN,clock,bear,0.55,0410_hp_dnn_0.55_bear_10_n02134084_9730.png
cornet-s,1,411,NaN,clock,boat,0.55,0411_hp_dnn_0.55_boat_10_n04612504_21601.png
cornet-s,1,412,NaN,knife,boat,0.55,0412_hp_dnn_0.55_boat_10_n03344393_13851.png
cornet-s,1,413,NaN,clock,boat,0.55,0413_hp_dnn_0.55_boat_10_n03662601_20834.png
cornet-s,1,414,NaN,knife,boat,0.55,0414_hp_dnn_0.55_boat_10_n04612504_19486.png
cornet-s,1,415,NaN,knife,boat,0.55,0415_hp_dnn_0.55_boat_10_n03662601_26557.png
cornet-s,1,416,NaN,clock,boat,0.55,0416_hp_dnn_0.55_boat_10_n04273569_17977.png
cornet-s,1,417,NaN,clock,boat,0.55,0417_hp_dnn_0.55_boat_10_n02951358_16166.png
cornet-s,1,418,NaN,knife,boat,0.55,0418_hp_dnn_0.55_boat_10_n02951358_12126.png
cornet-s,1,419,NaN,clock,boat,0.55,0419_hp_dnn_0.55_boat_10_n04612504_17978.png
cornet-s,1,420,NaN,clock,boat,0.55,0420_hp_dnn_0.55_boat_10_n02951358_3087.png
cornet-s,1,421,NaN,clock,cat,0.55,0421_hp_dnn_0.55_cat_10_n02123394_1499.png
cornet-s,1,422,NaN,clock,cat,0.55,0422_hp_dnn_0.55_cat_10_n02125311_30871.png
cornet-s,1,423,NaN,clock,cat,0.55,0423_hp_dnn_0.55_cat_10_n02125311_58564.png
cornet-s,1,424,NaN,clock,cat,0.55,0424_hp_dnn_0.55_cat_10_n02124075_2268.png
cornet-s,1,425,NaN,clock,cat,0.55,0425_hp_dnn_0.55_cat_10_n02123394_1858.png
cornet-s,1,426,NaN,clock,cat,0.55,0426_hp_dnn_0.55_cat_10_n02123394_916.png
cornet-s,1,427,NaN,clock,cat,0.55,0427_hp_dnn_0.55_cat_10_n02123394_9037.png
cornet-s,1,428,NaN,clock,cat,0.55,0428_hp_dnn_0.55_cat_10_n02123394_2726.png
cornet-s,1,429,NaN,clock,cat,0.55,0429_hp_dnn_0.55_cat_10_n02123394_2699.png
cornet-s,1,430,NaN,clock,cat,0.55,0430_hp_dnn_0.55_cat_10_n02123159_7259.png
cornet-s,1,431,NaN,knife,bottle,0.55,0431_hp_dnn_0.55_bottle_10_n02823428_3876.png
cornet-s,1,432,NaN,clock,bottle,0.55,0432_hp_dnn_0.55_bottle_10_n03983396_6920.png
cornet-s,1,433,NaN,knife,bottle,0.55,0433_hp_dnn_0.55_bottle_10_n03983396_4143.png
cornet-s,1,434,NaN,chair,bottle,0.55,0434_hp_dnn_0.55_bottle_10_n02823428_6196.png
cornet-s,1,435,NaN,clock,bottle,0.55,0435_hp_dnn_0.55_bottle_10_n04579145_4650.png
cornet-s,1,436,NaN,clock,bottle,0.55,0436_hp_dnn_0.55_bottle_10_n03937543_6396.png
cornet-s,1,437,NaN,clock,bottle,0.55,0437_hp_dnn_0.55_bottle_10_n04591713_8632.png
cornet-s,1,438,NaN,knife,bottle,0.55,0438_hp_dnn_0.55_bottle_10_n02823428_6328.png
cornet-s,1,439,NaN,clock,bottle,0.55,0439_hp_dnn_0.55_bottle_10_n03983396_12881.png
cornet-s,1,440,NaN,chair,bottle,0.55,0440_hp_dnn_0.55_bottle_10_n04579145_2676.png
cornet-s,1,441,NaN,airplane,truck,0.55,0441_hp_dnn_0.55_truck_10_n04467665_71074.png
cornet-s,1,442,NaN,clock,truck,0.55,0442_hp_dnn_0.55_truck_10_n03417042_19203.png
cornet-s,1,443,NaN,clock,truck,0.55,0443_hp_dnn_0.55_truck_10_n03417042_11000.png
cornet-s,1,444,NaN,clock,truck,0.55,0444_hp_dnn_0.55_truck_10_n03417042_4238.png
cornet-s,1,445,NaN,clock,truck,0.55,0445_hp_dnn_0.55_truck_10_n03796401_4119.png
cornet-s,1,446,NaN,knife,truck,0.55,0446_hp_dnn_0.55_truck_10_n04467665_65113.png
cornet-s,1,447,NaN,knife,truck,0.55,0447_hp_dnn_0.55_truck_10_n03796401_4465.png
cornet-s,1,448,NaN,clock,truck,0.55,0448_hp_dnn_0.55_truck_10_n03796401_5044.png
cornet-s,1,449,NaN,clock,truck,0.55,0449_hp_dnn_0.55_truck_10_n03796401_4827.png
cornet-s,1,450,NaN,clock,truck,0.55,0450_hp_dnn_0.55_truck_10_n03796401_11221.png
cornet-s,1,451,NaN,clock,car,0.55,0451_hp_dnn_0.55_car_10_n02814533_76.png
cornet-s,1,452,NaN,knife,car,0.55,0452_hp_dnn_0.55_car_10_n02814533_12044.png
cornet-s,1,453,NaN,knife,car,0.55,0453_hp_dnn_0.55_car_10_n04285008_7904.png
cornet-s,1,454,NaN,knife,car,0.55,0454_hp_dnn_0.55_car_10_n03100240_16653.png
cornet-s,1,455,NaN,knife,car,0.55,0455_hp_dnn_0.55_car_10_n02814533_94686.png
cornet-s,1,456,NaN,clock,car,0.55,0456_hp_dnn_0.55_car_10_n03100240_20114.png
cornet-s,1,457,NaN,bear,car,0.55,0457_hp_dnn_0.55_car_10_n03100240_3336.png
cornet-s,1,458,NaN,chair,car,0.55,0458_hp_dnn_0.55_car_10_n02814533_28371.png
cornet-s,1,459,NaN,clock,car,0.55,0459_hp_dnn_0.55_car_10_n02814533_62199.png
cornet-s,1,460,NaN,chair,car,0.55,0460_hp_dnn_0.55_car_10_n04285008_3891.png
cornet-s,1,461,NaN,clock,bird,0.55,0461_hp_dnn_0.55_bird_10_n01592084_202.png
cornet-s,1,462,NaN,chair,bird,0.55,0462_hp_dnn_0.55_bird_10_n01860187_486.png
cornet-s,1,463,NaN,clock,bird,0.55,0463_hp_dnn_0.55_bird_10_n01797886_80.png
cornet-s,1,464,NaN,clock,bird,0.55,0464_hp_dnn_0.55_bird_10_n01616318_5505.png
cornet-s,1,465,NaN,airplane,bird,0.55,0465_hp_dnn_0.55_bird_10_n01537544_18554.png
cornet-s,1,466,NaN,clock,bird,0.55,0466_hp_dnn_0.55_bird_10_n01855032_2640.png
cornet-s,1,467,NaN,clock,bird,0.55,0467_hp_dnn_0.55_bird_10_n01833805_2497.png
cornet-s,1,468,NaN,clock,bird,0.55,0468_hp_dnn_0.55_bird_10_n01530575_10711.png
cornet-s,1,469,NaN,clock,bird,0.55,0469_hp_dnn_0.55_bird_10_n01843383_6376.png
cornet-s,1,470,NaN,airplane,bird,0.55,0470_hp_dnn_0.55_bird_10_n01560419_2537.png
cornet-s,1,471,NaN,clock,dog,0.55,0471_hp_dnn_0.55_dog_10_n02097047_1721.png
cornet-s,1,472,NaN,clock,dog,0.55,0472_hp_dnn_0.55_dog_10_n02086910_1957.png
cornet-s,1,473,NaN,clock,dog,0.55,0473_hp_dnn_0.55_dog_10_n02107908_8544.png
cornet-s,1,474,NaN,clock,dog,0.55,0474_hp_dnn_0.55_dog_10_n02110806_131.png
cornet-s,1,475,NaN,clock,dog,0.55,0475_hp_dnn_0.55_dog_10_n02100236_9071.png
cornet-s,1,476,NaN,clock,dog,0.55,0476_hp_dnn_0.55_dog_10_n02101388_8113.png
cornet-s,1,477,NaN,clock,dog,0.55,0477_hp_dnn_0.55_dog_10_n02110063_15327.png
cornet-s,1,478,NaN,clock,dog,0.55,0478_hp_dnn_0.55_dog_10_n02091032_12099.png
cornet-s,1,479,NaN,clock,dog,0.55,0479_hp_dnn_0.55_dog_10_n02093428_13197.png
cornet-s,1,480,NaN,clock,dog,0.55,0480_hp_dnn_0.55_dog_10_n02107574_40.png
cornet-s,1,481,NaN,knife,knife,0.7,0481_hp_dnn_0.7_knife_10_n03041632_8563.png
cornet-s,1,482,NaN,keyboard,knife,0.7,0482_hp_dnn_0.7_knife_10_n03041632_47234.png
cornet-s,1,483,NaN,clock,knife,0.7,0483_hp_dnn_0.7_knife_10_n03041632_7982.png
cornet-s,1,484,NaN,knife,knife,0.7,0484_hp_dnn_0.7_knife_10_n03041632_11475.png
cornet-s,1,485,NaN,airplane,knife,0.7,0485_hp_dnn_0.7_knife_10_n03041632_9157.png
cornet-s,1,486,NaN,clock,knife,0.7,0486_hp_dnn_0.7_knife_10_n03041632_22190.png
cornet-s,1,487,NaN,knife,knife,0.7,0487_hp_dnn_0.7_knife_10_n03041632_22480.png
cornet-s,1,488,NaN,car,knife,0.7,0488_hp_dnn_0.7_knife_10_n03041632_5911.png
cornet-s,1,489,NaN,knife,knife,0.7,0489_hp_dnn_0.7_knife_10_n03041632_4279.png
cornet-s,1,490,NaN,clock,knife,0.7,0490_hp_dnn_0.7_knife_10_n03041632_90407.png
cornet-s,1,491,NaN,clock,keyboard,0.7,0491_hp_dnn_0.7_keyboard_10_n04505470_4906.png
cornet-s,1,492,NaN,knife,keyboard,0.7,0492_hp_dnn_0.7_keyboard_10_n04505470_4348.png
cornet-s,1,493,NaN,clock,keyboard,0.7,0493_hp_dnn_0.7_keyboard_10_n04505470_1994.png
cornet-s,1,494,NaN,clock,keyboard,0.7,0494_hp_dnn_0.7_keyboard_10_n03085013_19233.png
cornet-s,1,495,NaN,knife,keyboard,0.7,0495_hp_dnn_0.7_keyboard_10_n04505470_2158.png
cornet-s,1,496,NaN,keyboard,keyboard,0.7,0496_hp_dnn_0.7_keyboard_10_n03085013_22067.png
cornet-s,1,497,NaN,clock,keyboard,0.7,0497_hp_dnn_0.7_keyboard_10_n04505470_10665.png
cornet-s,1,498,NaN,keyboard,keyboard,0.7,0498_hp_dnn_0.7_keyboard_10_n03085013_20683.png
cornet-s,1,499,NaN,chair,keyboard,0.7,0499_hp_dnn_0.7_keyboard_10_n03085013_30073.png
cornet-s,1,500,NaN,keyboard,keyboard,0.7,0500_hp_dnn_0.7_keyboard_10_n03085013_15504.png
cornet-s,1,501,NaN,clock,elephant,0.7,0501_hp_dnn_0.7_elephant_10_n02504458_4361.png
cornet-s,1,502,NaN,clock,elephant,0.7,0502_hp_dnn_0.7_elephant_10_n02504458_4587.png
cornet-s,1,503,NaN,clock,elephant,0.7,0503_hp_dnn_0.7_elephant_10_n02504458_6903.png
cornet-s,1,504,NaN,knife,elephant,0.7,0504_hp_dnn_0.7_elephant_10_n02504458_461.png
cornet-s,1,505,NaN,clock,elephant,0.7,0505_hp_dnn_0.7_elephant_10_n02504458_1137.png
cornet-s,1,506,NaN,clock,elephant,0.7,0506_hp_dnn_0.7_elephant_10_n02504458_193.png
cornet-s,1,507,NaN,clock,elephant,0.7,0507_hp_dnn_0.7_elephant_10_n02504458_6130.png
cornet-s,1,508,NaN,clock,elephant,0.7,0508_hp_dnn_0.7_elephant_10_n02504013_2949.png
cornet-s,1,509,NaN,clock,elephant,0.7,0509_hp_dnn_0.7_elephant_10_n02504458_2739.png
cornet-s,1,510,NaN,clock,elephant,0.7,0510_hp_dnn_0.7_elephant_10_n02504458_8041.png
cornet-s,1,511,NaN,knife,bicycle,0.7,0511_hp_dnn_0.7_bicycle_10_n02835271_5177.png
cornet-s,1,512,NaN,clock,bicycle,0.7,0512_hp_dnn_0.7_bicycle_10_n03792782_952.png
cornet-s,1,513,NaN,knife,bicycle,0.7,0513_hp_dnn_0.7_bicycle_10_n02835271_12006.png
cornet-s,1,514,NaN,clock,bicycle,0.7,0514_hp_dnn_0.7_bicycle_10_n03792782_51679.png
cornet-s,1,515,NaN,knife,bicycle,0.7,0515_hp_dnn_0.7_bicycle_10_n02835271_13729.png
cornet-s,1,516,NaN,clock,bicycle,0.7,0516_hp_dnn_0.7_bicycle_10_n03792782_50972.png
cornet-s,1,517,NaN,clock,bicycle,0.7,0517_hp_dnn_0.7_bicycle_10_n03792782_5160.png
cornet-s,1,518,NaN,clock,bicycle,0.7,0518_hp_dnn_0.7_bicycle_10_n02835271_19557.png
cornet-s,1,519,NaN,airplane,bicycle,0.7,0519_hp_dnn_0.7_bicycle_10_n03792782_14935.png
cornet-s,1,520,NaN,knife,bicycle,0.7,0520_hp_dnn_0.7_bicycle_10_n03792782_1199.png
cornet-s,1,521,NaN,clock,airplane,0.7,0521_hp_dnn_0.7_airplane_10_n02690373_10514.png
cornet-s,1,522,NaN,knife,airplane,0.7,0522_hp_dnn_0.7_airplane_10_n02690373_7591.png
cornet-s,1,523,NaN,knife,airplane,0.7,0523_hp_dnn_0.7_airplane_10_n02690373_8950.png
cornet-s,1,524,NaN,clock,airplane,0.7,0524_hp_dnn_0.7_airplane_10_n02690373_10462.png
cornet-s,1,525,NaN,chair,airplane,0.7,0525_hp_dnn_0.7_airplane_10_n02690373_3553.png
cornet-s,1,526,NaN,airplane,airplane,0.7,0526_hp_dnn_0.7_airplane_10_n02690373_16986.png
cornet-s,1,527,NaN,knife,airplane,0.7,0527_hp_dnn_0.7_airplane_10_n02690373_6676.png
cornet-s,1,528,NaN,knife,airplane,0.7,0528_hp_dnn_0.7_airplane_10_n02690373_4176.png
cornet-s,1,529,NaN,airplane,airplane,0.7,0529_hp_dnn_0.7_airplane_10_n02690373_5597.png
cornet-s,1,530,NaN,knife,airplane,0.7,0530_hp_dnn_0.7_airplane_10_n02690373_5415.png
cornet-s,1,531,NaN,clock,clock,0.7,0531_hp_dnn_0.7_clock_10_n04548280_407.png
cornet-s,1,532,NaN,clock,clock,0.7,0532_hp_dnn_0.7_clock_10_n03196217_4915.png
cornet-s,1,533,NaN,clock,clock,0.7,0533_hp_dnn_0.7_clock_10_n04548280_5380.png
cornet-s,1,534,NaN,clock,clock,0.7,0534_hp_dnn_0.7_clock_10_n03196217_8325.png
cornet-s,1,535,NaN,airplane,clock,0.7,0535_hp_dnn_0.7_clock_10_n03196217_2022.png
cornet-s,1,536,NaN,clock,clock,0.7,0536_hp_dnn_0.7_clock_10_n04548280_668.png
cornet-s,1,537,NaN,clock,clock,0.7,0537_hp_dnn_0.7_clock_10_n04548280_5857.png
cornet-s,1,538,NaN,knife,clock,0.7,0538_hp_dnn_0.7_clock_10_n04548280_3396.png
cornet-s,1,539,NaN,clock,clock,0.7,0539_hp_dnn_0.7_clock_10_n03196217_1804.png
cornet-s,1,540,NaN,clock,clock,0.7,0540_hp_dnn_0.7_clock_10_n04548280_6811.png
cornet-s,1,541,NaN,clock,oven,0.7,0541_hp_dnn_0.7_oven_10_n04111531_6536.png
cornet-s,1,542,NaN,clock,oven,0.7,0542_hp_dnn_0.7_oven_10_n04111531_2447.png
cornet-s,1,543,NaN,chair,oven,0.7,0543_hp_dnn_0.7_oven_10_n04111531_5756.png
cornet-s,1,544,NaN,chair,oven,0.7,0544_hp_dnn_0.7_oven_10_n04111531_547.png
cornet-s,1,545,NaN,chair,oven,0.7,0545_hp_dnn_0.7_oven_10_n04111531_6313.png
cornet-s,1,546,NaN,airplane,oven,0.7,0546_hp_dnn_0.7_oven_10_n04111531_797.png
cornet-s,1,547,NaN,chair,oven,0.7,0547_hp_dnn_0.7_oven_10_n04111531_584.png
cornet-s,1,548,NaN,knife,oven,0.7,0548_hp_dnn_0.7_oven_10_n04111531_5643.png
cornet-s,1,549,NaN,clock,oven,0.7,0549_hp_dnn_0.7_oven_10_n04111531_3193.png
cornet-s,1,550,NaN,clock,oven,0.7,0550_hp_dnn_0.7_oven_10_n04111531_7469.png
cornet-s,1,551,NaN,chair,chair,0.7,0551_hp_dnn_0.7_chair_10_n02791124_4777.png
cornet-s,1,552,NaN,chair,chair,0.7,0552_hp_dnn_0.7_chair_10_n03376595_15542.png
cornet-s,1,553,NaN,clock,chair,0.7,0553_hp_dnn_0.7_chair_10_n04429376_20188.png
cornet-s,1,554,NaN,clock,chair,0.7,0554_hp_dnn_0.7_chair_10_n03376595_14453.png
cornet-s,1,555,NaN,clock,chair,0.7,0555_hp_dnn_0.7_chair_10_n04099969_18571.png
cornet-s,1,556,NaN,clock,chair,0.7,0556_hp_dnn_0.7_chair_10_n04429376_24535.png
cornet-s,1,557,NaN,clock,chair,0.7,0557_hp_dnn_0.7_chair_10_n03376595_7394.png
cornet-s,1,558,NaN,knife,chair,0.7,0558_hp_dnn_0.7_chair_10_n04429376_4941.png
cornet-s,1,559,NaN,clock,chair,0.7,0559_hp_dnn_0.7_chair_10_n04429376_11642.png
cornet-s,1,560,NaN,clock,chair,0.7,0560_hp_dnn_0.7_chair_10_n04429376_8106.png
cornet-s,1,561,NaN,clock,bear,0.7,0561_hp_dnn_0.7_bear_10_n02134418_162.png
cornet-s,1,562,NaN,clock,bear,0.7,0562_hp_dnn_0.7_bear_10_n02134418_3240.png
cornet-s,1,563,NaN,clock,bear,0.7,0563_hp_dnn_0.7_bear_10_n02134084_8045.png
cornet-s,1,564,NaN,clock,bear,0.7,0564_hp_dnn_0.7_bear_10_n02132136_23202.png
cornet-s,1,565,NaN,clock,bear,0.7,0565_hp_dnn_0.7_bear_10_n02134418_86.png
cornet-s,1,566,NaN,clock,bear,0.7,0566_hp_dnn_0.7_bear_10_n02133161_2601.png
cornet-s,1,567,NaN,clock,bear,0.7,0567_hp_dnn_0.7_bear_10_n02133161_575.png
cornet-s,1,568,NaN,clock,bear,0.7,0568_hp_dnn_0.7_bear_10_n02134418_4979.png
cornet-s,1,569,NaN,clock,bear,0.7,0569_hp_dnn_0.7_bear_10_n02134084_2082.png
cornet-s,1,570,NaN,clock,bear,0.7,0570_hp_dnn_0.7_bear_10_n02132136_24002.png
cornet-s,1,571,NaN,clock,boat,0.7,0571_hp_dnn_0.7_boat_10_n02951358_35068.png
cornet-s,1,572,NaN,cat,boat,0.7,0572_hp_dnn_0.7_boat_10_n03344393_830.png
cornet-s,1,573,NaN,knife,boat,0.7,0573_hp_dnn_0.7_boat_10_n04273569_2969.png
cornet-s,1,574,NaN,airplane,boat,0.7,0574_hp_dnn_0.7_boat_10_n04273569_872.png
cornet-s,1,575,NaN,chair,boat,0.7,0575_hp_dnn_0.7_boat_10_n02951358_32049.png
cornet-s,1,576,NaN,clock,boat,0.7,0576_hp_dnn_0.7_boat_10_n04612504_36022.png
cornet-s,1,577,NaN,clock,boat,0.7,0577_hp_dnn_0.7_boat_10_n02951358_15376.png
cornet-s,1,578,NaN,knife,boat,0.7,0578_hp_dnn_0.7_boat_10_n04612504_1337.png
cornet-s,1,579,NaN,airplane,boat,0.7,0579_hp_dnn_0.7_boat_10_n03662601_2105.png
cornet-s,1,580,NaN,knife,boat,0.7,0580_hp_dnn_0.7_boat_10_n02951358_34782.png
cornet-s,1,581,NaN,knife,cat,0.7,0581_hp_dnn_0.7_cat_10_n02123159_1389.png
cornet-s,1,582,NaN,clock,cat,0.7,0582_hp_dnn_0.7_cat_10_n02125311_45789.png
cornet-s,1,583,NaN,clock,cat,0.7,0583_hp_dnn_0.7_cat_10_n02124075_11983.png
cornet-s,1,584,NaN,clock,cat,0.7,0584_hp_dnn_0.7_cat_10_n02125311_6283.png
cornet-s,1,585,NaN,clock,cat,0.7,0585_hp_dnn_0.7_cat_10_n02124075_20891.png
cornet-s,1,586,NaN,clock,cat,0.7,0586_hp_dnn_0.7_cat_10_n02124075_5526.png
cornet-s,1,587,NaN,clock,cat,0.7,0587_hp_dnn_0.7_cat_10_n02124075_2675.png
cornet-s,1,588,NaN,clock,cat,0.7,0588_hp_dnn_0.7_cat_10_n02123045_2722.png
cornet-s,1,589,NaN,clock,cat,0.7,0589_hp_dnn_0.7_cat_10_n02123394_832.png
cornet-s,1,590,NaN,clock,cat,0.7,0590_hp_dnn_0.7_cat_10_n02123394_7698.png
cornet-s,1,591,NaN,chair,bottle,0.7,0591_hp_dnn_0.7_bottle_10_n04560804_30628.png
cornet-s,1,592,NaN,bottle,bottle,0.7,0592_hp_dnn_0.7_bottle_10_n03983396_5632.png
cornet-s,1,593,NaN,chair,bottle,0.7,0593_hp_dnn_0.7_bottle_10_n03937543_11379.png
cornet-s,1,594,NaN,clock,bottle,0.7,0594_hp_dnn_0.7_bottle_10_n04560804_15559.png
cornet-s,1,595,NaN,knife,bottle,0.7,0595_hp_dnn_0.7_bottle_10_n04560804_3688.png
cornet-s,1,596,NaN,clock,bottle,0.7,0596_hp_dnn_0.7_bottle_10_n02823428_4193.png
cornet-s,1,597,NaN,clock,bottle,0.7,0597_hp_dnn_0.7_bottle_10_n04579145_159.png
cornet-s,1,598,NaN,chair,bottle,0.7,0598_hp_dnn_0.7_bottle_10_n02823428_641.png
cornet-s,1,599,NaN,knife,bottle,0.7,0599_hp_dnn_0.7_bottle_10_n03983396_2277.png
cornet-s,1,600,NaN,knife,bottle,0.7,0600_hp_dnn_0.7_bottle_10_n03937543_3306.png
cornet-s,1,601,NaN,airplane,truck,0.7,0601_hp_dnn_0.7_truck_10_n04467665_80493.png
cornet-s,1,602,NaN,clock,truck,0.7,0602_hp_dnn_0.7_truck_10_n04467665_61792.png
cornet-s,1,603,NaN,clock,truck,0.7,0603_hp_dnn_0.7_truck_10_n03417042_10957.png
cornet-s,1,604,NaN,knife,truck,0.7,0604_hp_dnn_0.7_truck_10_n03417042_2603.png
cornet-s,1,605,NaN,knife,truck,0.7,0605_hp_dnn_0.7_truck_10_n03417042_10121.png
cornet-s,1,606,NaN,clock,truck,0.7,0606_hp_dnn_0.7_truck_10_n03417042_19020.png
cornet-s,1,607,NaN,knife,truck,0.7,0607_hp_dnn_0.7_truck_10_n03417042_6272.png
cornet-s,1,608,NaN,knife,truck,0.7,0608_hp_dnn_0.7_truck_10_n03796401_3250.png
cornet-s,1,609,NaN,airplane,truck,0.7,0609_hp_dnn_0.7_truck_10_n04467665_51267.png
cornet-s,1,610,NaN,knife,truck,0.7,0610_hp_dnn_0.7_truck_10_n03417042_7764.png
cornet-s,1,611,NaN,clock,car,0.7,0611_hp_dnn_0.7_car_10_n04285008_7924.png
cornet-s,1,612,NaN,knife,car,0.7,0612_hp_dnn_0.7_car_10_n02814533_12348.png
cornet-s,1,613,NaN,knife,car,0.7,0613_hp_dnn_0.7_car_10_n02814533_60889.png
cornet-s,1,614,NaN,knife,car,0.7,0614_hp_dnn_0.7_car_10_n04285008_7610.png
cornet-s,1,615,NaN,clock,car,0.7,0615_hp_dnn_0.7_car_10_n03100240_1236.png
cornet-s,1,616,NaN,chair,car,0.7,0616_hp_dnn_0.7_car_10_n03100240_209.png
cornet-s,1,617,NaN,knife,car,0.7,0617_hp_dnn_0.7_car_10_n04285008_9211.png
cornet-s,1,618,NaN,knife,car,0.7,0618_hp_dnn_0.7_car_10_n03100240_6797.png
cornet-s,1,619,NaN,clock,car,0.7,0619_hp_dnn_0.7_car_10_n02814533_65555.png
cornet-s,1,620,NaN,knife,car,0.7,0620_hp_dnn_0.7_car_10_n03100240_17555.png
cornet-s,1,621,NaN,knife,bird,0.7,0621_hp_dnn_0.7_bird_10_n01514859_7276.png
cornet-s,1,622,NaN,clock,bird,0.7,0622_hp_dnn_0.7_bird_10_n02018207_1645.png
cornet-s,1,623,NaN,clock,bird,0.7,0623_hp_dnn_0.7_bird_10_n01534433_22825.png
cornet-s,1,624,NaN,clock,bird,0.7,0624_hp_dnn_0.7_bird_10_n02009229_576.png
cornet-s,1,625,NaN,clock,bird,0.7,0625_hp_dnn_0.7_bird_10_n02013706_6715.png
cornet-s,1,626,NaN,airplane,bird,0.7,0626_hp_dnn_0.7_bird_10_n02018207_13136.png
cornet-s,1,627,NaN,clock,bird,0.7,0627_hp_dnn_0.7_bird_10_n01818515_1617.png
cornet-s,1,628,NaN,clock,bird,0.7,0628_hp_dnn_0.7_bird_10_n01824575_3677.png
cornet-s,1,629,NaN,chair,bird,0.7,0629_hp_dnn_0.7_bird_10_n02027492_8055.png
cornet-s,1,630,NaN,clock,bird,0.7,0630_hp_dnn_0.7_bird_10_n02025239_21760.png
cornet-s,1,631,NaN,clock,dog,0.7,0631_hp_dnn_0.7_dog_10_n02105251_12948.png
cornet-s,1,632,NaN,knife,dog,0.7,0632_hp_dnn_0.7_dog_10_n02104029_4789.png
cornet-s,1,633,NaN,clock,dog,0.7,0633_hp_dnn_0.7_dog_10_n02092002_492.png
cornet-s,1,634,NaN,clock,dog,0.7,0634_hp_dnn_0.7_dog_10_n02092339_6638.png
cornet-s,1,635,NaN,clock,dog,0.7,0635_hp_dnn_0.7_dog_10_n02106382_1215.png
cornet-s,1,636,NaN,clock,dog,0.7,0636_hp_dnn_0.7_dog_10_n02088466_8325.png
cornet-s,1,637,NaN,clock,dog,0.7,0637_hp_dnn_0.7_dog_10_n02096294_8781.png
cornet-s,1,638,NaN,chair,dog,0.7,0638_hp_dnn_0.7_dog_10_n02100877_22450.png
cornet-s,1,639,NaN,knife,dog,0.7,0639_hp_dnn_0.7_dog_10_n02090379_5516.png
cornet-s,1,640,NaN,clock,dog,0.7,0640_hp_dnn_0.7_dog_10_n02099849_1741.png
cornet-s,1,641,NaN,knife,knife,1,0641_hp_dnn_1_knife_10_n03041632_29343.png
cornet-s,1,642,NaN,knife,knife,1,0642_hp_dnn_1_knife_10_n03041632_41077.png
cornet-s,1,643,NaN,knife,knife,1,0643_hp_dnn_1_knife_10_n03041632_35365.png
cornet-s,1,644,NaN,knife,knife,1,0644_hp_dnn_1_knife_10_n03041632_25656.png
cornet-s,1,645,NaN,chair,knife,1,0645_hp_dnn_1_knife_10_n03041632_29920.png
cornet-s,1,646,NaN,keyboard,knife,1,0646_hp_dnn_1_knife_10_n03041632_9580.png
cornet-s,1,647,NaN,knife,knife,1,0647_hp_dnn_1_knife_10_n03041632_47703.png
cornet-s,1,648,NaN,clock,knife,1,0648_hp_dnn_1_knife_10_n03041632_91967.png
cornet-s,1,649,NaN,knife,knife,1,0649_hp_dnn_1_knife_10_n03041632_20517.png
cornet-s,1,650,NaN,knife,knife,1,0650_hp_dnn_1_knife_10_n03041632_8540.png
cornet-s,1,651,NaN,knife,keyboard,1,0651_hp_dnn_1_keyboard_10_n04505470_10705.png
cornet-s,1,652,NaN,keyboard,keyboard,1,0652_hp_dnn_1_keyboard_10_n03085013_3666.png
cornet-s,1,653,NaN,keyboard,keyboard,1,0653_hp_dnn_1_keyboard_10_n04505470_4068.png
cornet-s,1,654,NaN,keyboard,keyboard,1,0654_hp_dnn_1_keyboard_10_n03085013_9475.png
cornet-s,1,655,NaN,keyboard,keyboard,1,0655_hp_dnn_1_keyboard_10_n03085013_2508.png
cornet-s,1,656,NaN,keyboard,keyboard,1,0656_hp_dnn_1_keyboard_10_n03085013_24306.png
cornet-s,1,657,NaN,keyboard,keyboard,1,0657_hp_dnn_1_keyboard_10_n04505470_2972.png
cornet-s,1,658,NaN,clock,keyboard,1,0658_hp_dnn_1_keyboard_10_n03085013_23619.png
cornet-s,1,659,NaN,clock,keyboard,1,0659_hp_dnn_1_keyboard_10_n03085013_24061.png
cornet-s,1,660,NaN,clock,keyboard,1,0660_hp_dnn_1_keyboard_10_n03085013_18851.png
cornet-s,1,661,NaN,knife,elephant,1,0661_hp_dnn_1_elephant_10_n02504013_3409.png
cornet-s,1,662,NaN,clock,elephant,1,0662_hp_dnn_1_elephant_10_n02504458_7777.png
cornet-s,1,663,NaN,knife,elephant,1,0663_hp_dnn_1_elephant_10_n02504013_2033.png
cornet-s,1,664,NaN,clock,elephant,1,0664_hp_dnn_1_elephant_10_n02504458_5788.png
cornet-s,1,665,NaN,clock,elephant,1,0665_hp_dnn_1_elephant_10_n02504458_11772.png
cornet-s,1,666,NaN,boat,elephant,1,0666_hp_dnn_1_elephant_10_n02504013_1574.png
cornet-s,1,667,NaN,clock,elephant,1,0667_hp_dnn_1_elephant_10_n02504458_1347.png
cornet-s,1,668,NaN,clock,elephant,1,0668_hp_dnn_1_elephant_10_n02504013_828.png
cornet-s,1,669,NaN,knife,elephant,1,0669_hp_dnn_1_elephant_10_n02504458_4143.png
cornet-s,1,670,NaN,clock,elephant,1,0670_hp_dnn_1_elephant_10_n02504458_7130.png
cornet-s,1,671,NaN,knife,bicycle,1,0671_hp_dnn_1_bicycle_10_n02835271_2580.png
cornet-s,1,672,NaN,clock,bicycle,1,0672_hp_dnn_1_bicycle_10_n03792782_1108.png
cornet-s,1,673,NaN,knife,bicycle,1,0673_hp_dnn_1_bicycle_10_n02835271_12346.png
cornet-s,1,674,NaN,clock,bicycle,1,0674_hp_dnn_1_bicycle_10_n03792782_15138.png
cornet-s,1,675,NaN,clock,bicycle,1,0675_hp_dnn_1_bicycle_10_n02835271_3732.png
cornet-s,1,676,NaN,clock,bicycle,1,0676_hp_dnn_1_bicycle_10_n02835271_2815.png
cornet-s,1,677,NaN,knife,bicycle,1,0677_hp_dnn_1_bicycle_10_n03792782_2649.png
cornet-s,1,678,NaN,clock,bicycle,1,0678_hp_dnn_1_bicycle_10_n02835271_7828.png
cornet-s,1,679,NaN,clock,bicycle,1,0679_hp_dnn_1_bicycle_10_n02835271_4379.png
cornet-s,1,680,NaN,knife,bicycle,1,0680_hp_dnn_1_bicycle_10_n03792782_34197.png
cornet-s,1,681,NaN,airplane,airplane,1,0681_hp_dnn_1_airplane_10_n02690373_1996.png
cornet-s,1,682,NaN,boat,airplane,1,0682_hp_dnn_1_airplane_10_n02690373_19286.png
cornet-s,1,683,NaN,chair,airplane,1,0683_hp_dnn_1_airplane_10_n02690373_3984.png
cornet-s,1,684,NaN,airplane,airplane,1,0684_hp_dnn_1_airplane_10_n02690373_15392.png
cornet-s,1,685,NaN,knife,airplane,1,0685_hp_dnn_1_airplane_10_n02690373_4893.png
cornet-s,1,686,NaN,clock,airplane,1,0686_hp_dnn_1_airplane_10_n02690373_3074.png
cornet-s,1,687,NaN,airplane,airplane,1,0687_hp_dnn_1_airplane_10_n02690373_10203.png
cornet-s,1,688,NaN,chair,airplane,1,0688_hp_dnn_1_airplane_10_n02690373_10112.png
cornet-s,1,689,NaN,airplane,airplane,1,0689_hp_dnn_1_airplane_10_n02690373_4294.png
cornet-s,1,690,NaN,airplane,airplane,1,0690_hp_dnn_1_airplane_10_n02690373_12984.png
cornet-s,1,691,NaN,clock,clock,1,0691_hp_dnn_1_clock_10_n03196217_5845.png
cornet-s,1,692,NaN,chair,clock,1,0692_hp_dnn_1_clock_10_n02708093_7122.png
cornet-s,1,693,NaN,clock,clock,1,0693_hp_dnn_1_clock_10_n04548280_22406.png
cornet-s,1,694,NaN,clock,clock,1,0694_hp_dnn_1_clock_10_n04548280_503.png
cornet-s,1,695,NaN,clock,clock,1,0695_hp_dnn_1_clock_10_n03196217_4019.png
cornet-s,1,696,NaN,clock,clock,1,0696_hp_dnn_1_clock_10_n04548280_549.png
cornet-s,1,697,NaN,clock,clock,1,0697_hp_dnn_1_clock_10_n04548280_7211.png
cornet-s,1,698,NaN,clock,clock,1,0698_hp_dnn_1_clock_10_n04548280_8357.png
cornet-s,1,699,NaN,clock,clock,1,0699_hp_dnn_1_clock_10_n02708093_3595.png
cornet-s,1,700,NaN,clock,clock,1,0700_hp_dnn_1_clock_10_n04548280_8510.png
cornet-s,1,701,NaN,clock,oven,1,0701_hp_dnn_1_oven_10_n04111531_4959.png
cornet-s,1,702,NaN,clock,oven,1,0702_hp_dnn_1_oven_10_n04111531_7338.png
cornet-s,1,703,NaN,clock,oven,1,0703_hp_dnn_1_oven_10_n04111531_3181.png
cornet-s,1,704,NaN,chair,oven,1,0704_hp_dnn_1_oven_10_n04111531_9429.png
cornet-s,1,705,NaN,chair,oven,1,0705_hp_dnn_1_oven_10_n04111531_8553.png
cornet-s,1,706,NaN,knife,oven,1,0706_hp_dnn_1_oven_10_n04111531_13255.png
cornet-s,1,707,NaN,clock,oven,1,0707_hp_dnn_1_oven_10_n04111531_8988.png
cornet-s,1,708,NaN,clock,oven,1,0708_hp_dnn_1_oven_10_n04111531_3671.png
cornet-s,1,709,NaN,clock,oven,1,0709_hp_dnn_1_oven_10_n04111531_249.png
cornet-s,1,710,NaN,knife,oven,1,0710_hp_dnn_1_oven_10_n04111531_9308.png
cornet-s,1,711,NaN,keyboard,chair,1,0711_hp_dnn_1_chair_10_n03376595_7010.png
cornet-s,1,712,NaN,chair,chair,1,0712_hp_dnn_1_chair_10_n03376595_3166.png
cornet-s,1,713,NaN,clock,chair,1,0713_hp_dnn_1_chair_10_n02791124_1248.png
cornet-s,1,714,NaN,knife,chair,1,0714_hp_dnn_1_chair_10_n04429376_19241.png
cornet-s,1,715,NaN,knife,chair,1,0715_hp_dnn_1_chair_10_n02791124_1888.png
cornet-s,1,716,NaN,chair,chair,1,0716_hp_dnn_1_chair_10_n02791124_9967.png
cornet-s,1,717,NaN,chair,chair,1,0717_hp_dnn_1_chair_10_n03376595_17093.png
cornet-s,1,718,NaN,clock,chair,1,0718_hp_dnn_1_chair_10_n04429376_19717.png
cornet-s,1,719,NaN,chair,chair,1,0719_hp_dnn_1_chair_10_n04099969_38476.png
cornet-s,1,720,NaN,clock,chair,1,0720_hp_dnn_1_chair_10_n02791124_2972.png
cornet-s,1,721,NaN,knife,bear,1,0721_hp_dnn_1_bear_10_n02134084_35010.png
cornet-s,1,722,NaN,knife,bear,1,0722_hp_dnn_1_bear_10_n02134084_4612.png
cornet-s,1,723,NaN,clock,bear,1,0723_hp_dnn_1_bear_10_n02134418_9829.png
cornet-s,1,724,NaN,clock,bear,1,0724_hp_dnn_1_bear_10_n02134084_40088.png
cornet-s,1,725,NaN,clock,bear,1,0725_hp_dnn_1_bear_10_n02132136_416.png
cornet-s,1,726,NaN,clock,bear,1,0726_hp_dnn_1_bear_10_n02132136_2828.png
cornet-s,1,727,NaN,clock,bear,1,0727_hp_dnn_1_bear_10_n02134084_2069.png
cornet-s,1,728,NaN,clock,bear,1,0728_hp_dnn_1_bear_10_n02134418_2582.png
cornet-s,1,729,NaN,clock,bear,1,0729_hp_dnn_1_bear_10_n02134084_3569.png
cornet-s,1,730,NaN,clock,bear,1,0730_hp_dnn_1_bear_10_n02134418_4603.png
cornet-s,1,731,NaN,knife,boat,1,0731_hp_dnn_1_boat_10_n04273569_10668.png
cornet-s,1,732,NaN,clock,boat,1,0732_hp_dnn_1_boat_10_n03344393_2410.png
cornet-s,1,733,NaN,knife,boat,1,0733_hp_dnn_1_boat_10_n03344393_5923.png
cornet-s,1,734,NaN,clock,boat,1,0734_hp_dnn_1_boat_10_n04273569_5794.png
cornet-s,1,735,NaN,clock,boat,1,0735_hp_dnn_1_boat_10_n04273569_32209.png
cornet-s,1,736,NaN,clock,boat,1,0736_hp_dnn_1_boat_10_n04612504_24342.png
cornet-s,1,737,NaN,boat,boat,1,0737_hp_dnn_1_boat_10_n04612504_20553.png
cornet-s,1,738,NaN,clock,boat,1,0738_hp_dnn_1_boat_10_n03344393_2879.png
cornet-s,1,739,NaN,boat,boat,1,0739_hp_dnn_1_boat_10_n04612504_5434.png
cornet-s,1,740,NaN,airplane,boat,1,0740_hp_dnn_1_boat_10_n03344393_5231.png
cornet-s,1,741,NaN,clock,cat,1,0741_hp_dnn_1_cat_10_n02123394_1996.png
cornet-s,1,742,NaN,clock,cat,1,0742_hp_dnn_1_cat_10_n02123597_7798.png
cornet-s,1,743,NaN,clock,cat,1,0743_hp_dnn_1_cat_10_n02124075_19379.png
cornet-s,1,744,NaN,clock,cat,1,0744_hp_dnn_1_cat_10_n02123394_6363.png
cornet-s,1,745,NaN,clock,cat,1,0745_hp_dnn_1_cat_10_n02123159_5444.png
cornet-s,1,746,NaN,clock,cat,1,0746_hp_dnn_1_cat_10_n02125311_17212.png
cornet-s,1,747,NaN,clock,cat,1,0747_hp_dnn_1_cat_10_n02123394_2496.png
cornet-s,1,748,NaN,clock,cat,1,0748_hp_dnn_1_cat_10_n02123394_724.png
cornet-s,1,749,NaN,clock,cat,1,0749_hp_dnn_1_cat_10_n02125311_20206.png
cornet-s,1,750,NaN,clock,cat,1,0750_hp_dnn_1_cat_10_n02123159_4879.png
cornet-s,1,751,NaN,clock,bottle,1,0751_hp_dnn_1_bottle_10_n04591713_7164.png
cornet-s,1,752,NaN,chair,bottle,1,0752_hp_dnn_1_bottle_10_n04579145_310.png
cornet-s,1,753,NaN,knife,bottle,1,0753_hp_dnn_1_bottle_10_n03983396_2053.png
cornet-s,1,754,NaN,knife,bottle,1,0754_hp_dnn_1_bottle_10_n03983396_11539.png
cornet-s,1,755,NaN,bottle,bottle,1,0755_hp_dnn_1_bottle_10_n04591713_5560.png
cornet-s,1,756,NaN,clock,bottle,1,0756_hp_dnn_1_bottle_10_n03983396_11715.png
cornet-s,1,757,NaN,knife,bottle,1,0757_hp_dnn_1_bottle_10_n04557648_3989.png
cornet-s,1,758,NaN,bottle,bottle,1,0758_hp_dnn_1_bottle_10_n02823428_3362.png
cornet-s,1,759,NaN,clock,bottle,1,0759_hp_dnn_1_bottle_10_n03937543_129.png
cornet-s,1,760,NaN,clock,bottle,1,0760_hp_dnn_1_bottle_10_n03983396_1769.png
cornet-s,1,761,NaN,knife,truck,1,0761_hp_dnn_1_truck_10_n03417042_9592.png
cornet-s,1,762,NaN,clock,truck,1,0762_hp_dnn_1_truck_10_n04467665_6268.png
cornet-s,1,763,NaN,knife,truck,1,0763_hp_dnn_1_truck_10_n03417042_19650.png
cornet-s,1,764,NaN,knife,truck,1,0764_hp_dnn_1_truck_10_n03417042_924.png
cornet-s,1,765,NaN,knife,truck,1,0765_hp_dnn_1_truck_10_n03796401_8351.png
cornet-s,1,766,NaN,clock,truck,1,0766_hp_dnn_1_truck_10_n03417042_3466.png
cornet-s,1,767,NaN,knife,truck,1,0767_hp_dnn_1_truck_10_n03417042_21270.png
cornet-s,1,768,NaN,truck,truck,1,0768_hp_dnn_1_truck_10_n04467665_4782.png
cornet-s,1,769,NaN,truck,truck,1,0769_hp_dnn_1_truck_10_n04467665_32090.png
cornet-s,1,770,NaN,knife,truck,1,0770_hp_dnn_1_truck_10_n04467665_14142.png
cornet-s,1,771,NaN,knife,car,1,0771_hp_dnn_1_car_10_n03100240_17966.png
cornet-s,1,772,NaN,airplane,car,1,0772_hp_dnn_1_car_10_n02814533_12126.png
cornet-s,1,773,NaN,car,car,1,0773_hp_dnn_1_car_10_n04285008_7781.png
cornet-s,1,774,NaN,bottle,car,1,0774_hp_dnn_1_car_10_n02814533_31567.png
cornet-s,1,775,NaN,knife,car,1,0775_hp_dnn_1_car_10_n02814533_1594.png
cornet-s,1,776,NaN,clock,car,1,0776_hp_dnn_1_car_10_n02814533_46401.png
cornet-s,1,777,NaN,car,car,1,0777_hp_dnn_1_car_10_n04285008_7198.png
cornet-s,1,778,NaN,airplane,car,1,0778_hp_dnn_1_car_10_n04285008_12589.png
cornet-s,1,779,NaN,clock,car,1,0779_hp_dnn_1_car_10_n04285008_7375.png
cornet-s,1,780,NaN,knife,car,1,0780_hp_dnn_1_car_10_n02814533_3121.png
cornet-s,1,781,NaN,clock,bird,1,0781_hp_dnn_1_bird_10_n02051845_6244.png
cornet-s,1,782,NaN,knife,bird,1,0782_hp_dnn_1_bird_10_n02025239_730.png
cornet-s,1,783,NaN,clock,bird,1,0783_hp_dnn_1_bird_10_n02037110_2251.png
cornet-s,1,784,NaN,airplane,bird,1,0784_hp_dnn_1_bird_10_n01855672_1994.png
cornet-s,1,785,NaN,clock,bird,1,0785_hp_dnn_1_bird_10_n01820546_5290.png
cornet-s,1,786,NaN,clock,bird,1,0786_hp_dnn_1_bird_10_n02018207_1604.png
cornet-s,1,787,NaN,clock,bird,1,0787_hp_dnn_1_bird_10_n02002556_20061.png
cornet-s,1,788,NaN,clock,bird,1,0788_hp_dnn_1_bird_10_n01534433_4455.png
cornet-s,1,789,NaN,chair,bird,1,0789_hp_dnn_1_bird_10_n02025239_7703.png
cornet-s,1,790,NaN,clock,bird,1,0790_hp_dnn_1_bird_10_n02002724_6157.png
cornet-s,1,791,NaN,chair,dog,1,0791_hp_dnn_1_dog_10_n02086240_4142.png
cornet-s,1,792,NaN,knife,dog,1,0792_hp_dnn_1_dog_10_n02097474_5688.png
cornet-s,1,793,NaN,clock,dog,1,0793_hp_dnn_1_dog_10_n02111129_637.png
cornet-s,1,794,NaN,clock,dog,1,0794_hp_dnn_1_dog_10_n02106166_20828.png
cornet-s,1,795,NaN,clock,dog,1,0795_hp_dnn_1_dog_10_n02095314_5949.png
cornet-s,1,796,NaN,clock,dog,1,0796_hp_dnn_1_dog_10_n02102040_3978.png
cornet-s,1,797,NaN,knife,dog,1,0797_hp_dnn_1_dog_10_n02086240_3954.png
cornet-s,1,798,NaN,clock,dog,1,0798_hp_dnn_1_dog_10_n02088238_7336.png
cornet-s,1,799,NaN,knife,dog,1,0799_hp_dnn_1_dog_10_n02087394_2278.png
cornet-s,1,800,NaN,clock,dog,1,0800_hp_dnn_1_dog_10_n02085936_8929.png
cornet-s,1,801,NaN,clock,knife,1.5,0801_hp_dnn_1.5_knife_10_n03041632_9302.png
cornet-s,1,802,NaN,knife,knife,1.5,0802_hp_dnn_1.5_knife_10_n03041632_13108.png
cornet-s,1,803,NaN,clock,knife,1.5,0803_hp_dnn_1.5_knife_10_n03041632_16932.png
cornet-s,1,804,NaN,clock,knife,1.5,0804_hp_dnn_1.5_knife_10_n03041632_87380.png
cornet-s,1,805,NaN,knife,knife,1.5,0805_hp_dnn_1.5_knife_10_n03041632_3101.png
cornet-s,1,806,NaN,clock,knife,1.5,0806_hp_dnn_1.5_knife_10_n03041632_84086.png
cornet-s,1,807,NaN,bottle,knife,1.5,0807_hp_dnn_1.5_knife_10_n03041632_32004.png
cornet-s,1,808,NaN,knife,knife,1.5,0808_hp_dnn_1.5_knife_10_n03041632_13203.png
cornet-s,1,809,NaN,knife,knife,1.5,0809_hp_dnn_1.5_knife_10_n03041632_120.png
cornet-s,1,810,NaN,chair,knife,1.5,0810_hp_dnn_1.5_knife_10_n03041632_7448.png
cornet-s,1,811,NaN,oven,keyboard,1.5,0811_hp_dnn_1.5_keyboard_10_n04505470_1371.png
cornet-s,1,812,NaN,keyboard,keyboard,1.5,0812_hp_dnn_1.5_keyboard_10_n03085013_3148.png
cornet-s,1,813,NaN,keyboard,keyboard,1.5,0813_hp_dnn_1.5_keyboard_10_n03085013_32137.png
cornet-s,1,814,NaN,clock,keyboard,1.5,0814_hp_dnn_1.5_keyboard_10_n03085013_20753.png
cornet-s,1,815,NaN,keyboard,keyboard,1.5,0815_hp_dnn_1.5_keyboard_10_n03085013_18876.png
cornet-s,1,816,NaN,keyboard,keyboard,1.5,0816_hp_dnn_1.5_keyboard_10_n04505470_4974.png
cornet-s,1,817,NaN,keyboard,keyboard,1.5,0817_hp_dnn_1.5_keyboard_10_n04505470_4414.png
cornet-s,1,818,NaN,keyboard,keyboard,1.5,0818_hp_dnn_1.5_keyboard_10_n04505470_4710.png
cornet-s,1,819,NaN,keyboard,keyboard,1.5,0819_hp_dnn_1.5_keyboard_10_n04505470_4033.png
cornet-s,1,820,NaN,keyboard,keyboard,1.5,0820_hp_dnn_1.5_keyboard_10_n03085013_28584.png
cornet-s,1,821,NaN,knife,elephant,1.5,0821_hp_dnn_1.5_elephant_10_n02504458_5839.png
cornet-s,1,822,NaN,clock,elephant,1.5,0822_hp_dnn_1.5_elephant_10_n02504458_6433.png
cornet-s,1,823,NaN,bear,elephant,1.5,0823_hp_dnn_1.5_elephant_10_n02504458_1996.png
cornet-s,1,824,NaN,chair,elephant,1.5,0824_hp_dnn_1.5_elephant_10_n02504013_22813.png
cornet-s,1,825,NaN,clock,elephant,1.5,0825_hp_dnn_1.5_elephant_10_n02504013_593.png
cornet-s,1,826,NaN,clock,elephant,1.5,0826_hp_dnn_1.5_elephant_10_n02504013_2619.png
cornet-s,1,827,NaN,chair,elephant,1.5,0827_hp_dnn_1.5_elephant_10_n02504458_4883.png
cornet-s,1,828,NaN,clock,elephant,1.5,0828_hp_dnn_1.5_elephant_10_n02504013_5027.png
cornet-s,1,829,NaN,clock,elephant,1.5,0829_hp_dnn_1.5_elephant_10_n02504458_5444.png
cornet-s,1,830,NaN,clock,elephant,1.5,0830_hp_dnn_1.5_elephant_10_n02504458_7359.png
cornet-s,1,831,NaN,bottle,bicycle,1.5,0831_hp_dnn_1.5_bicycle_10_n03792782_1412.png
cornet-s,1,832,NaN,clock,bicycle,1.5,0832_hp_dnn_1.5_bicycle_10_n02835271_478.png
cornet-s,1,833,NaN,clock,bicycle,1.5,0833_hp_dnn_1.5_bicycle_10_n02835271_18453.png
cornet-s,1,834,NaN,airplane,bicycle,1.5,0834_hp_dnn_1.5_bicycle_10_n02835271_23430.png
cornet-s,1,835,NaN,knife,bicycle,1.5,0835_hp_dnn_1.5_bicycle_10_n02835271_7594.png
cornet-s,1,836,NaN,knife,bicycle,1.5,0836_hp_dnn_1.5_bicycle_10_n02835271_12852.png
cornet-s,1,837,NaN,knife,bicycle,1.5,0837_hp_dnn_1.5_bicycle_10_n02835271_13256.png
cornet-s,1,838,NaN,chair,bicycle,1.5,0838_hp_dnn_1.5_bicycle_10_n03792782_30246.png
cornet-s,1,839,NaN,bottle,bicycle,1.5,0839_hp_dnn_1.5_bicycle_10_n03792782_6413.png
cornet-s,1,840,NaN,clock,bicycle,1.5,0840_hp_dnn_1.5_bicycle_10_n03792782_11115.png
cornet-s,1,841,NaN,keyboard,airplane,1.5,0841_hp_dnn_1.5_airplane_10_n02690373_2147.png
cornet-s,1,842,NaN,airplane,airplane,1.5,0842_hp_dnn_1.5_airplane_10_n02690373_3775.png
cornet-s,1,843,NaN,airplane,airplane,1.5,0843_hp_dnn_1.5_airplane_10_n02690373_9680.png
cornet-s,1,844,NaN,airplane,airplane,1.5,0844_hp_dnn_1.5_airplane_10_n02690373_8754.png
cornet-s,1,845,NaN,airplane,airplane,1.5,0845_hp_dnn_1.5_airplane_10_n02690373_2837.png
cornet-s,1,846,NaN,airplane,airplane,1.5,0846_hp_dnn_1.5_airplane_10_n02690373_17722.png
cornet-s,1,847,NaN,airplane,airplane,1.5,0847_hp_dnn_1.5_airplane_10_n02690373_2952.png
cornet-s,1,848,NaN,keyboard,airplane,1.5,0848_hp_dnn_1.5_airplane_10_n02690373_4866.png
cornet-s,1,849,NaN,clock,airplane,1.5,0849_hp_dnn_1.5_airplane_10_n02690373_9293.png
cornet-s,1,850,NaN,airplane,airplane,1.5,0850_hp_dnn_1.5_airplane_10_n02690373_16620.png
cornet-s,1,851,NaN,clock,clock,1.5,0851_hp_dnn_1.5_clock_10_n02708093_92.png
cornet-s,1,852,NaN,clock,clock,1.5,0852_hp_dnn_1.5_clock_10_n03196217_6511.png
cornet-s,1,853,NaN,clock,clock,1.5,0853_hp_dnn_1.5_clock_10_n04548280_4511.png
cornet-s,1,854,NaN,clock,clock,1.5,0854_hp_dnn_1.5_clock_10_n04548280_9816.png
cornet-s,1,855,NaN,chair,clock,1.5,0855_hp_dnn_1.5_clock_10_n04548280_4995.png
cornet-s,1,856,NaN,clock,clock,1.5,0856_hp_dnn_1.5_clock_10_n02708093_7006.png
cornet-s,1,857,NaN,clock,clock,1.5,0857_hp_dnn_1.5_clock_10_n04548280_386.png
cornet-s,1,858,NaN,clock,clock,1.5,0858_hp_dnn_1.5_clock_10_n02708093_910.png
cornet-s,1,859,NaN,clock,clock,1.5,0859_hp_dnn_1.5_clock_10_n02708093_1281.png
cornet-s,1,860,NaN,clock,clock,1.5,0860_hp_dnn_1.5_clock_10_n04548280_7733.png
cornet-s,1,861,NaN,chair,oven,1.5,0861_hp_dnn_1.5_oven_10_n04111531_21931.png
cornet-s,1,862,NaN,oven,oven,1.5,0862_hp_dnn_1.5_oven_10_n04111531_4146.png
cornet-s,1,863,NaN,chair,oven,1.5,0863_hp_dnn_1.5_oven_10_n04111531_409.png
cornet-s,1,864,NaN,chair,oven,1.5,0864_hp_dnn_1.5_oven_10_n04111531_2797.png
cornet-s,1,865,NaN,clock,oven,1.5,0865_hp_dnn_1.5_oven_10_n04111531_7134.png
cornet-s,1,866,NaN,truck,oven,1.5,0866_hp_dnn_1.5_oven_10_n04111531_3977.png
cornet-s,1,867,NaN,chair,oven,1.5,0867_hp_dnn_1.5_oven_10_n04111531_14095.png
cornet-s,1,868,NaN,chair,oven,1.5,0868_hp_dnn_1.5_oven_10_n04111531_3955.png
cornet-s,1,869,NaN,clock,oven,1.5,0869_hp_dnn_1.5_oven_10_n04111531_22386.png
cornet-s,1,870,NaN,chair,oven,1.5,0870_hp_dnn_1.5_oven_10_n04111531_10358.png
cornet-s,1,871,NaN,chair,chair,1.5,0871_hp_dnn_1.5_chair_10_n04429376_9039.png
cornet-s,1,872,NaN,chair,chair,1.5,0872_hp_dnn_1.5_chair_10_n04429376_7902.png
cornet-s,1,873,NaN,chair,chair,1.5,0873_hp_dnn_1.5_chair_10_n04099969_3430.png
cornet-s,1,874,NaN,chair,chair,1.5,0874_hp_dnn_1.5_chair_10_n04429376_27939.png
cornet-s,1,875,NaN,clock,chair,1.5,0875_hp_dnn_1.5_chair_10_n03376595_2512.png
cornet-s,1,876,NaN,chair,chair,1.5,0876_hp_dnn_1.5_chair_10_n03376595_9165.png
cornet-s,1,877,NaN,chair,chair,1.5,0877_hp_dnn_1.5_chair_10_n03376595_10569.png
cornet-s,1,878,NaN,knife,chair,1.5,0878_hp_dnn_1.5_chair_10_n04429376_8751.png
cornet-s,1,879,NaN,chair,chair,1.5,0879_hp_dnn_1.5_chair_10_n04099969_22118.png
cornet-s,1,880,NaN,chair,chair,1.5,0880_hp_dnn_1.5_chair_10_n04429376_28372.png
cornet-s,1,881,NaN,chair,bear,1.5,0881_hp_dnn_1.5_bear_10_n02133161_8200.png
cornet-s,1,882,NaN,clock,bear,1.5,0882_hp_dnn_1.5_bear_10_n02134084_1730.png
cornet-s,1,883,NaN,bottle,bear,1.5,0883_hp_dnn_1.5_bear_10_n02134418_3351.png
cornet-s,1,884,NaN,knife,bear,1.5,0884_hp_dnn_1.5_bear_10_n02133161_1853.png
cornet-s,1,885,NaN,bear,bear,1.5,0885_hp_dnn_1.5_bear_10_n02134084_4581.png
cornet-s,1,886,NaN,knife,bear,1.5,0886_hp_dnn_1.5_bear_10_n02133161_4354.png
cornet-s,1,887,NaN,clock,bear,1.5,0887_hp_dnn_1.5_bear_10_n02134418_1094.png
cornet-s,1,888,NaN,clock,bear,1.5,0888_hp_dnn_1.5_bear_10_n02134418_3076.png
cornet-s,1,889,NaN,clock,bear,1.5,0889_hp_dnn_1.5_bear_10_n02133161_12878.png
cornet-s,1,890,NaN,bottle,bear,1.5,0890_hp_dnn_1.5_bear_10_n02134418_5827.png
cornet-s,1,891,NaN,airplane,boat,1.5,0891_hp_dnn_1.5_boat_10_n03662601_21969.png
cornet-s,1,892,NaN,boat,boat,1.5,0892_hp_dnn_1.5_boat_10_n02951358_14915.png
cornet-s,1,893,NaN,boat,boat,1.5,0893_hp_dnn_1.5_boat_10_n03344393_8599.png
cornet-s,1,894,NaN,clock,boat,1.5,0894_hp_dnn_1.5_boat_10_n02951358_996.png
cornet-s,1,895,NaN,chair,boat,1.5,0895_hp_dnn_1.5_boat_10_n03344393_9528.png
cornet-s,1,896,NaN,boat,boat,1.5,0896_hp_dnn_1.5_boat_10_n03662601_4665.png
cornet-s,1,897,NaN,airplane,boat,1.5,0897_hp_dnn_1.5_boat_10_n03662601_21704.png
cornet-s,1,898,NaN,boat,boat,1.5,0898_hp_dnn_1.5_boat_10_n04612504_7652.png
cornet-s,1,899,NaN,airplane,boat,1.5,0899_hp_dnn_1.5_boat_10_n03662601_1565.png
cornet-s,1,900,NaN,boat,boat,1.5,0900_hp_dnn_1.5_boat_10_n03662601_17492.png
cornet-s,1,901,NaN,chair,cat,1.5,0901_hp_dnn_1.5_cat_10_n02123159_4106.png
cornet-s,1,902,NaN,chair,cat,1.5,0902_hp_dnn_1.5_cat_10_n02124075_4165.png
cornet-s,1,903,NaN,clock,cat,1.5,0903_hp_dnn_1.5_cat_10_n02124075_11762.png
cornet-s,1,904,NaN,chair,cat,1.5,0904_hp_dnn_1.5_cat_10_n02125311_31647.png
cornet-s,1,905,NaN,clock,cat,1.5,0905_hp_dnn_1.5_cat_10_n02123394_2467.png
cornet-s,1,906,NaN,clock,cat,1.5,0906_hp_dnn_1.5_cat_10_n02123159_1231.png
cornet-s,1,907,NaN,clock,cat,1.5,0907_hp_dnn_1.5_cat_10_n02123045_6704.png
cornet-s,1,908,NaN,clock,cat,1.5,0908_hp_dnn_1.5_cat_10_n02123394_8164.png
cornet-s,1,909,NaN,clock,cat,1.5,0909_hp_dnn_1.5_cat_10_n02123597_8588.png
cornet-s,1,910,NaN,cat,cat,1.5,0910_hp_dnn_1.5_cat_10_n02123045_4452.png
cornet-s,1,911,NaN,bottle,bottle,1.5,0911_hp_dnn_1.5_bottle_10_n04557648_4009.png
cornet-s,1,912,NaN,truck,bottle,1.5,0912_hp_dnn_1.5_bottle_10_n02823428_13131.png
cornet-s,1,913,NaN,knife,bottle,1.5,0913_hp_dnn_1.5_bottle_10_n02823428_6928.png
cornet-s,1,914,NaN,bottle,bottle,1.5,0914_hp_dnn_1.5_bottle_10_n02823428_880.png
cornet-s,1,915,NaN,bottle,bottle,1.5,0915_hp_dnn_1.5_bottle_10_n04560804_13141.png
cornet-s,1,916,NaN,bottle,bottle,1.5,0916_hp_dnn_1.5_bottle_10_n02823428_4139.png
cornet-s,1,917,NaN,bottle,bottle,1.5,0917_hp_dnn_1.5_bottle_10_n04560804_24278.png
cornet-s,1,918,NaN,chair,bottle,1.5,0918_hp_dnn_1.5_bottle_10_n02823428_2463.png
cornet-s,1,919,NaN,clock,bottle,1.5,0919_hp_dnn_1.5_bottle_10_n03983396_12449.png
cornet-s,1,920,NaN,chair,bottle,1.5,0920_hp_dnn_1.5_bottle_10_n04557648_8485.png
cornet-s,1,921,NaN,keyboard,truck,1.5,0921_hp_dnn_1.5_truck_10_n03417042_7997.png
cornet-s,1,922,NaN,truck,truck,1.5,0922_hp_dnn_1.5_truck_10_n04467665_31090.png
cornet-s,1,923,NaN,airplane,truck,1.5,0923_hp_dnn_1.5_truck_10_n04467665_71305.png
cornet-s,1,924,NaN,knife,truck,1.5,0924_hp_dnn_1.5_truck_10_n03417042_14037.png
cornet-s,1,925,NaN,truck,truck,1.5,0925_hp_dnn_1.5_truck_10_n03417042_3698.png
cornet-s,1,926,NaN,clock,truck,1.5,0926_hp_dnn_1.5_truck_10_n03417042_7599.png
cornet-s,1,927,NaN,clock,truck,1.5,0927_hp_dnn_1.5_truck_10_n03417042_4258.png
cornet-s,1,928,NaN,truck,truck,1.5,0928_hp_dnn_1.5_truck_10_n04467665_3433.png
cornet-s,1,929,NaN,chair,truck,1.5,0929_hp_dnn_1.5_truck_10_n03417042_908.png
cornet-s,1,930,NaN,truck,truck,1.5,0930_hp_dnn_1.5_truck_10_n04467665_39237.png
cornet-s,1,931,NaN,car,car,1.5,0931_hp_dnn_1.5_car_10_n03100240_2319.png
cornet-s,1,932,NaN,car,car,1.5,0932_hp_dnn_1.5_car_10_n04285008_12543.png
cornet-s,1,933,NaN,car,car,1.5,0933_hp_dnn_1.5_car_10_n04285008_8831.png
cornet-s,1,934,NaN,clock,car,1.5,0934_hp_dnn_1.5_car_10_n03100240_6173.png
cornet-s,1,935,NaN,clock,car,1.5,0935_hp_dnn_1.5_car_10_n04285008_2789.png
cornet-s,1,936,NaN,car,car,1.5,0936_hp_dnn_1.5_car_10_n04285008_7503.png
cornet-s,1,937,NaN,chair,car,1.5,0937_hp_dnn_1.5_car_10_n02814533_26657.png
cornet-s,1,938,NaN,chair,car,1.5,0938_hp_dnn_1.5_car_10_n03100240_21569.png
cornet-s,1,939,NaN,car,car,1.5,0939_hp_dnn_1.5_car_10_n02814533_43868.png
cornet-s,1,940,NaN,car,car,1.5,0940_hp_dnn_1.5_car_10_n03100240_21884.png
cornet-s,1,941,NaN,bird,bird,1.5,0941_hp_dnn_1.5_bird_10_n02002724_18695.png
cornet-s,1,942,NaN,chair,bird,1.5,0942_hp_dnn_1.5_bird_10_n02007558_20918.png
cornet-s,1,943,NaN,clock,bird,1.5,0943_hp_dnn_1.5_bird_10_n02017213_3039.png
cornet-s,1,944,NaN,keyboard,bird,1.5,0944_hp_dnn_1.5_bird_10_n02017213_1.png
cornet-s,1,945,NaN,knife,bird,1.5,0945_hp_dnn_1.5_bird_10_n02006656_2810.png
cornet-s,1,946,NaN,bird,bird,1.5,0946_hp_dnn_1.5_bird_10_n02051845_697.png
cornet-s,1,947,NaN,chair,bird,1.5,0947_hp_dnn_1.5_bird_10_n01795545_16068.png
cornet-s,1,948,NaN,chair,bird,1.5,0948_hp_dnn_1.5_bird_10_n01843065_11784.png
cornet-s,1,949,NaN,bird,bird,1.5,0949_hp_dnn_1.5_bird_10_n02002724_4067.png
cornet-s,1,950,NaN,chair,bird,1.5,0950_hp_dnn_1.5_bird_10_n02017213_796.png
cornet-s,1,951,NaN,clock,dog,1.5,0951_hp_dnn_1.5_dog_10_n02085936_1950.png
cornet-s,1,952,NaN,chair,dog,1.5,0952_hp_dnn_1.5_dog_10_n02111277_29147.png
cornet-s,1,953,NaN,chair,dog,1.5,0953_hp_dnn_1.5_dog_10_n02087046_3755.png
cornet-s,1,954,NaN,clock,dog,1.5,0954_hp_dnn_1.5_dog_10_n02100877_8900.png
cornet-s,1,955,NaN,chair,dog,1.5,0955_hp_dnn_1.5_dog_10_n02093754_1721.png
cornet-s,1,956,NaN,knife,dog,1.5,0956_hp_dnn_1.5_dog_10_n02102480_7313.png
cornet-s,1,957,NaN,chair,dog,1.5,0957_hp_dnn_1.5_dog_10_n02108915_6961.png
cornet-s,1,958,NaN,clock,dog,1.5,0958_hp_dnn_1.5_dog_10_n02087394_35004.png
cornet-s,1,959,NaN,chair,dog,1.5,0959_hp_dnn_1.5_dog_10_n02111500_9109.png
cornet-s,1,960,NaN,bottle,dog,1.5,0960_hp_dnn_1.5_dog_10_n02090379_6882.png
cornet-s,1,961,NaN,keyboard,knife,3,0961_hp_dnn_3_knife_10_n03041632_17067.png
cornet-s,1,962,NaN,chair,knife,3,0962_hp_dnn_3_knife_10_n03041632_33225.png
cornet-s,1,963,NaN,knife,knife,3,0963_hp_dnn_3_knife_10_n03041632_45326.png
cornet-s,1,964,NaN,bottle,knife,3,0964_hp_dnn_3_knife_10_n03041632_86118.png
cornet-s,1,965,NaN,knife,knife,3,0965_hp_dnn_3_knife_10_n03041632_48149.png
cornet-s,1,966,NaN,keyboard,knife,3,0966_hp_dnn_3_knife_10_n03041632_36834.png
cornet-s,1,967,NaN,knife,knife,3,0967_hp_dnn_3_knife_10_n03041632_6708.png
cornet-s,1,968,NaN,knife,knife,3,0968_hp_dnn_3_knife_10_n03041632_54191.png
cornet-s,1,969,NaN,knife,knife,3,0969_hp_dnn_3_knife_10_n03041632_33584.png
cornet-s,1,970,NaN,chair,knife,3,0970_hp_dnn_3_knife_10_n03041632_27134.png
cornet-s,1,971,NaN,keyboard,keyboard,3,0971_hp_dnn_3_keyboard_10_n03085013_11682.png
cornet-s,1,972,NaN,keyboard,keyboard,3,0972_hp_dnn_3_keyboard_10_n03085013_18903.png
cornet-s,1,973,NaN,keyboard,keyboard,3,0973_hp_dnn_3_keyboard_10_n03085013_4856.png
cornet-s,1,974,NaN,keyboard,keyboard,3,0974_hp_dnn_3_keyboard_10_n03085013_3231.png
cornet-s,1,975,NaN,keyboard,keyboard,3,0975_hp_dnn_3_keyboard_10_n03085013_22254.png
cornet-s,1,976,NaN,keyboard,keyboard,3,0976_hp_dnn_3_keyboard_10_n03085013_8932.png
cornet-s,1,977,NaN,keyboard,keyboard,3,0977_hp_dnn_3_keyboard_10_n03085013_3595.png
cornet-s,1,978,NaN,keyboard,keyboard,3,0978_hp_dnn_3_keyboard_10_n03085013_23662.png
cornet-s,1,979,NaN,keyboard,keyboard,3,0979_hp_dnn_3_keyboard_10_n03085013_21932.png
cornet-s,1,980,NaN,keyboard,keyboard,3,0980_hp_dnn_3_keyboard_10_n03085013_22417.png
cornet-s,1,981,NaN,elephant,elephant,3,0981_hp_dnn_3_elephant_10_n02504458_3140.png
cornet-s,1,982,NaN,elephant,elephant,3,0982_hp_dnn_3_elephant_10_n02504458_11596.png
cornet-s,1,983,NaN,elephant,elephant,3,0983_hp_dnn_3_elephant_10_n02504458_6171.png
cornet-s,1,984,NaN,elephant,elephant,3,0984_hp_dnn_3_elephant_10_n02504013_2549.png
cornet-s,1,985,NaN,elephant,elephant,3,0985_hp_dnn_3_elephant_10_n02504458_11324.png
cornet-s,1,986,NaN,elephant,elephant,3,0986_hp_dnn_3_elephant_10_n02504458_6664.png
cornet-s,1,987,NaN,elephant,elephant,3,0987_hp_dnn_3_elephant_10_n02504013_4005.png
cornet-s,1,988,NaN,elephant,elephant,3,0988_hp_dnn_3_elephant_10_n02504013_3892.png
cornet-s,1,989,NaN,elephant,elephant,3,0989_hp_dnn_3_elephant_10_n02504013_1708.png
cornet-s,1,990,NaN,elephant,elephant,3,0990_hp_dnn_3_elephant_10_n02504458_6618.png
cornet-s,1,991,NaN,bicycle,bicycle,3,0991_hp_dnn_3_bicycle_10_n03792782_35912.png
cornet-s,1,992,NaN,bicycle,bicycle,3,0992_hp_dnn_3_bicycle_10_n02835271_8529.png
cornet-s,1,993,NaN,bicycle,bicycle,3,0993_hp_dnn_3_bicycle_10_n03792782_7650.png
cornet-s,1,994,NaN,bicycle,bicycle,3,0994_hp_dnn_3_bicycle_10_n03792782_12470.png
cornet-s,1,995,NaN,chair,bicycle,3,0995_hp_dnn_3_bicycle_10_n03792782_6731.png
cornet-s,1,996,NaN,bicycle,bicycle,3,0996_hp_dnn_3_bicycle_10_n03792782_17503.png
cornet-s,1,997,NaN,bicycle,bicycle,3,0997_hp_dnn_3_bicycle_10_n03792782_19253.png
cornet-s,1,998,NaN,bicycle,bicycle,3,0998_hp_dnn_3_bicycle_10_n02835271_13209.png
cornet-s,1,999,NaN,bicycle,bicycle,3,0999_hp_dnn_3_bicycle_10_n03792782_6616.png
cornet-s,1,1000,NaN,bicycle,bicycle,3,1000_hp_dnn_3_bicycle_10_n03792782_13438.png
cornet-s,1,1001,NaN,airplane,airplane,3,1001_hp_dnn_3_airplane_10_n02690373_1310.png
cornet-s,1,1002,NaN,airplane,airplane,3,1002_hp_dnn_3_airplane_10_n02690373_7971.png
cornet-s,1,1003,NaN,airplane,airplane,3,1003_hp_dnn_3_airplane_10_n02690373_10399.png
cornet-s,1,1004,NaN,airplane,airplane,3,1004_hp_dnn_3_airplane_10_n02690373_7651.png
cornet-s,1,1005,NaN,airplane,airplane,3,1005_hp_dnn_3_airplane_10_n02690373_1277.png
cornet-s,1,1006,NaN,airplane,airplane,3,1006_hp_dnn_3_airplane_10_n02690373_20331.png
cornet-s,1,1007,NaN,clock,airplane,3,1007_hp_dnn_3_airplane_10_n02690373_5632.png
cornet-s,1,1008,NaN,airplane,airplane,3,1008_hp_dnn_3_airplane_10_n02690373_3334.png
cornet-s,1,1009,NaN,airplane,airplane,3,1009_hp_dnn_3_airplane_10_n02690373_6807.png
cornet-s,1,1010,NaN,airplane,airplane,3,1010_hp_dnn_3_airplane_10_n02690373_6342.png
cornet-s,1,1011,NaN,knife,clock,3,1011_hp_dnn_3_clock_10_n03196217_5610.png
cornet-s,1,1012,NaN,clock,clock,3,1012_hp_dnn_3_clock_10_n02708093_41.png
cornet-s,1,1013,NaN,clock,clock,3,1013_hp_dnn_3_clock_10_n04548280_702.png
cornet-s,1,1014,NaN,clock,clock,3,1014_hp_dnn_3_clock_10_n04548280_13982.png
cornet-s,1,1015,NaN,clock,clock,3,1015_hp_dnn_3_clock_10_n02708093_4783.png
cornet-s,1,1016,NaN,clock,clock,3,1016_hp_dnn_3_clock_10_n03196217_658.png
cornet-s,1,1017,NaN,keyboard,clock,3,1017_hp_dnn_3_clock_10_n03196217_10717.png
cornet-s,1,1018,NaN,clock,clock,3,1018_hp_dnn_3_clock_10_n04548280_11806.png
cornet-s,1,1019,NaN,chair,clock,3,1019_hp_dnn_3_clock_10_n04548280_1109.png
cornet-s,1,1020,NaN,clock,clock,3,1020_hp_dnn_3_clock_10_n03196217_5414.png
cornet-s,1,1021,NaN,oven,oven,3,1021_hp_dnn_3_oven_10_n04111531_6485.png
cornet-s,1,1022,NaN,chair,oven,3,1022_hp_dnn_3_oven_10_n04111531_3270.png
cornet-s,1,1023,NaN,oven,oven,3,1023_hp_dnn_3_oven_10_n04111531_5015.png
cornet-s,1,1024,NaN,oven,oven,3,1024_hp_dnn_3_oven_10_n04111531_7821.png
cornet-s,1,1025,NaN,chair,oven,3,1025_hp_dnn_3_oven_10_n04111531_6628.png
cornet-s,1,1026,NaN,clock,oven,3,1026_hp_dnn_3_oven_10_n04111531_11709.png
cornet-s,1,1027,NaN,chair,oven,3,1027_hp_dnn_3_oven_10_n04111531_12589.png
cornet-s,1,1028,NaN,chair,oven,3,1028_hp_dnn_3_oven_10_n04111531_8462.png
cornet-s,1,1029,NaN,chair,oven,3,1029_hp_dnn_3_oven_10_n04111531_13486.png
cornet-s,1,1030,NaN,chair,oven,3,1030_hp_dnn_3_oven_10_n04111531_6024.png
cornet-s,1,1031,NaN,chair,chair,3,1031_hp_dnn_3_chair_10_n02791124_3697.png
cornet-s,1,1032,NaN,chair,chair,3,1032_hp_dnn_3_chair_10_n02791124_1682.png
cornet-s,1,1033,NaN,chair,chair,3,1033_hp_dnn_3_chair_10_n03376595_2734.png
cornet-s,1,1034,NaN,chair,chair,3,1034_hp_dnn_3_chair_10_n04099969_1890.png
cornet-s,1,1035,NaN,chair,chair,3,1035_hp_dnn_3_chair_10_n02791124_6654.png
cornet-s,1,1036,NaN,chair,chair,3,1036_hp_dnn_3_chair_10_n04099969_2307.png
cornet-s,1,1037,NaN,chair,chair,3,1037_hp_dnn_3_chair_10_n03376595_4611.png
cornet-s,1,1038,NaN,chair,chair,3,1038_hp_dnn_3_chair_10_n04099969_7910.png
cornet-s,1,1039,NaN,chair,chair,3,1039_hp_dnn_3_chair_10_n04429376_49717.png
cornet-s,1,1040,NaN,chair,chair,3,1040_hp_dnn_3_chair_10_n03376595_13982.png
cornet-s,1,1041,NaN,cat,bear,3,1041_hp_dnn_3_bear_10_n02132136_3563.png
cornet-s,1,1042,NaN,bear,bear,3,1042_hp_dnn_3_bear_10_n02134084_3098.png
cornet-s,1,1043,NaN,cat,bear,3,1043_hp_dnn_3_bear_10_n02132136_8011.png
cornet-s,1,1044,NaN,bear,bear,3,1044_hp_dnn_3_bear_10_n02132136_24852.png
cornet-s,1,1045,NaN,cat,bear,3,1045_hp_dnn_3_bear_10_n02132136_8260.png
cornet-s,1,1046,NaN,elephant,bear,3,1046_hp_dnn_3_bear_10_n02132136_15450.png
cornet-s,1,1047,NaN,chair,bear,3,1047_hp_dnn_3_bear_10_n02133161_3580.png
cornet-s,1,1048,NaN,bear,bear,3,1048_hp_dnn_3_bear_10_n02134418_4185.png
cornet-s,1,1049,NaN,chair,bear,3,1049_hp_dnn_3_bear_10_n02134418_12172.png
cornet-s,1,1050,NaN,chair,bear,3,1050_hp_dnn_3_bear_10_n02134418_1253.png
cornet-s,1,1051,NaN,boat,boat,3,1051_hp_dnn_3_boat_10_n03344393_6352.png
cornet-s,1,1052,NaN,boat,boat,3,1052_hp_dnn_3_boat_10_n03662601_15505.png
cornet-s,1,1053,NaN,airplane,boat,3,1053_hp_dnn_3_boat_10_n04273569_28270.png
cornet-s,1,1054,NaN,boat,boat,3,1054_hp_dnn_3_boat_10_n04612504_4378.png
cornet-s,1,1055,NaN,boat,boat,3,1055_hp_dnn_3_boat_10_n02951358_9014.png
cornet-s,1,1056,NaN,boat,boat,3,1056_hp_dnn_3_boat_10_n02951358_3898.png
cornet-s,1,1057,NaN,boat,boat,3,1057_hp_dnn_3_boat_10_n03662601_22384.png
cornet-s,1,1058,NaN,boat,boat,3,1058_hp_dnn_3_boat_10_n02951358_11924.png
cornet-s,1,1059,NaN,boat,boat,3,1059_hp_dnn_3_boat_10_n02951358_12432.png
cornet-s,1,1060,NaN,airplane,boat,3,1060_hp_dnn_3_boat_10_n03662601_32251.png
cornet-s,1,1061,NaN,cat,cat,3,1061_hp_dnn_3_cat_10_n02123045_9737.png
cornet-s,1,1062,NaN,chair,cat,3,1062_hp_dnn_3_cat_10_n02123597_8663.png
cornet-s,1,1063,NaN,cat,cat,3,1063_hp_dnn_3_cat_10_n02125311_32606.png
cornet-s,1,1064,NaN,cat,cat,3,1064_hp_dnn_3_cat_10_n02123159_5627.png
cornet-s,1,1065,NaN,cat,cat,3,1065_hp_dnn_3_cat_10_n02123045_2009.png
cornet-s,1,1066,NaN,clock,cat,3,1066_hp_dnn_3_cat_10_n02123394_4426.png
cornet-s,1,1067,NaN,cat,cat,3,1067_hp_dnn_3_cat_10_n02124075_11982.png
cornet-s,1,1068,NaN,cat,cat,3,1068_hp_dnn_3_cat_10_n02124075_14929.png
cornet-s,1,1069,NaN,dog,cat,3,1069_hp_dnn_3_cat_10_n02123394_6349.png
cornet-s,1,1070,NaN,cat,cat,3,1070_hp_dnn_3_cat_10_n02123394_652.png
cornet-s,1,1071,NaN,bottle,bottle,3,1071_hp_dnn_3_bottle_10_n03983396_8101.png
cornet-s,1,1072,NaN,bottle,bottle,3,1072_hp_dnn_3_bottle_10_n03983396_845.png
cornet-s,1,1073,NaN,bottle,bottle,3,1073_hp_dnn_3_bottle_10_n04591713_13283.png
cornet-s,1,1074,NaN,chair,bottle,3,1074_hp_dnn_3_bottle_10_n04560804_2341.png
cornet-s,1,1075,NaN,knife,bottle,3,1075_hp_dnn_3_bottle_10_n04560804_2657.png
cornet-s,1,1076,NaN,bottle,bottle,3,1076_hp_dnn_3_bottle_10_n03983396_16828.png
cornet-s,1,1077,NaN,chair,bottle,3,1077_hp_dnn_3_bottle_10_n04591713_425.png
cornet-s,1,1078,NaN,truck,bottle,3,1078_hp_dnn_3_bottle_10_n02823428_12424.png
cornet-s,1,1079,NaN,bottle,bottle,3,1079_hp_dnn_3_bottle_10_n03937543_1948.png
cornet-s,1,1080,NaN,bottle,bottle,3,1080_hp_dnn_3_bottle_10_n02823428_11624.png
cornet-s,1,1081,NaN,truck,truck,3,1081_hp_dnn_3_truck_10_n03417042_4600.png
cornet-s,1,1082,NaN,truck,truck,3,1082_hp_dnn_3_truck_10_n03417042_14261.png
cornet-s,1,1083,NaN,truck,truck,3,1083_hp_dnn_3_truck_10_n03796401_3191.png
cornet-s,1,1084,NaN,truck,truck,3,1084_hp_dnn_3_truck_10_n04467665_58158.png
cornet-s,1,1085,NaN,truck,truck,3,1085_hp_dnn_3_truck_10_n03796401_9168.png
cornet-s,1,1086,NaN,truck,truck,3,1086_hp_dnn_3_truck_10_n04467665_2890.png
cornet-s,1,1087,NaN,car,truck,3,1087_hp_dnn_3_truck_10_n03796401_99.png
cornet-s,1,1088,NaN,truck,truck,3,1088_hp_dnn_3_truck_10_n03417042_28122.png
cornet-s,1,1089,NaN,truck,truck,3,1089_hp_dnn_3_truck_10_n03417042_7472.png
cornet-s,1,1090,NaN,truck,truck,3,1090_hp_dnn_3_truck_10_n03796401_5035.png
cornet-s,1,1091,NaN,car,car,3,1091_hp_dnn_3_car_10_n04285008_4059.png
cornet-s,1,1092,NaN,car,car,3,1092_hp_dnn_3_car_10_n04285008_8761.png
cornet-s,1,1093,NaN,car,car,3,1093_hp_dnn_3_car_10_n04285008_7208.png
cornet-s,1,1094,NaN,car,car,3,1094_hp_dnn_3_car_10_n03100240_23363.png
cornet-s,1,1095,NaN,car,car,3,1095_hp_dnn_3_car_10_n03100240_379.png
cornet-s,1,1096,NaN,car,car,3,1096_hp_dnn_3_car_10_n04285008_5528.png
cornet-s,1,1097,NaN,car,car,3,1097_hp_dnn_3_car_10_n02814533_71181.png
cornet-s,1,1098,NaN,car,car,3,1098_hp_dnn_3_car_10_n04285008_9317.png
cornet-s,1,1099,NaN,car,car,3,1099_hp_dnn_3_car_10_n02814533_22824.png
cornet-s,1,1100,NaN,car,car,3,1100_hp_dnn_3_car_10_n02814533_43040.png
cornet-s,1,1101,NaN,bird,bird,3,1101_hp_dnn_3_bird_10_n01855672_8698.png
cornet-s,1,1102,NaN,bird,bird,3,1102_hp_dnn_3_bird_10_n01818515_4949.png
cornet-s,1,1103,NaN,bird,bird,3,1103_hp_dnn_3_bird_10_n02009229_4397.png
cornet-s,1,1104,NaN,clock,bird,3,1104_hp_dnn_3_bird_10_n02002556_171.png
cornet-s,1,1105,NaN,bird,bird,3,1105_hp_dnn_3_bird_10_n02002724_4516.png
cornet-s,1,1106,NaN,chair,bird,3,1106_hp_dnn_3_bird_10_n01817953_13483.png
cornet-s,1,1107,NaN,bird,bird,3,1107_hp_dnn_3_bird_10_n02037110_27125.png
cornet-s,1,1108,NaN,knife,bird,3,1108_hp_dnn_3_bird_10_n01843383_3604.png
cornet-s,1,1109,NaN,knife,bird,3,1109_hp_dnn_3_bird_10_n01860187_1736.png
cornet-s,1,1110,NaN,bird,bird,3,1110_hp_dnn_3_bird_10_n01537544_23464.png
cornet-s,1,1111,NaN,chair,dog,3,1111_hp_dnn_3_dog_10_n02107574_1968.png
cornet-s,1,1112,NaN,dog,dog,3,1112_hp_dnn_3_dog_10_n02100735_3019.png
cornet-s,1,1113,NaN,chair,dog,3,1113_hp_dnn_3_dog_10_n02108915_8818.png
cornet-s,1,1114,NaN,chair,dog,3,1114_hp_dnn_3_dog_10_n02097658_430.png
cornet-s,1,1115,NaN,chair,dog,3,1115_hp_dnn_3_dog_10_n02092002_92.png
cornet-s,1,1116,NaN,dog,dog,3,1116_hp_dnn_3_dog_10_n02090721_4797.png
cornet-s,1,1117,NaN,dog,dog,3,1117_hp_dnn_3_dog_10_n02086646_7642.png
cornet-s,1,1118,NaN,cat,dog,3,1118_hp_dnn_3_dog_10_n02100735_3037.png
cornet-s,1,1119,NaN,elephant,dog,3,1119_hp_dnn_3_dog_10_n02106550_12039.png
cornet-s,1,1120,NaN,chair,dog,3,1120_hp_dnn_3_dog_10_n02088466_2420.png
cornet-s,1,1121,NaN,chair,knife,inf,1121_hp_dnn_inf_knife_10_n03041632_14442.png
cornet-s,1,1122,NaN,chair,knife,inf,1122_hp_dnn_inf_knife_10_n03041632_32208.png
cornet-s,1,1123,NaN,knife,knife,inf,1123_hp_dnn_inf_knife_10_n03041632_28710.png
cornet-s,1,1124,NaN,knife,knife,inf,1124_hp_dnn_inf_knife_10_n03041632_48816.png
cornet-s,1,1125,NaN,oven,knife,inf,1125_hp_dnn_inf_knife_10_n03041632_18126.png
cornet-s,1,1126,NaN,knife,knife,inf,1126_hp_dnn_inf_knife_10_n03041632_10000.png
cornet-s,1,1127,NaN,knife,knife,inf,1127_hp_dnn_inf_knife_10_n03041632_32979.png
cornet-s,1,1128,NaN,knife,knife,inf,1128_hp_dnn_inf_knife_10_n03041632_49363.png
cornet-s,1,1129,NaN,chair,knife,inf,1129_hp_dnn_inf_knife_10_n03041632_10796.png
cornet-s,1,1130,NaN,knife,knife,inf,1130_hp_dnn_inf_knife_10_n03041632_2153.png
cornet-s,1,1131,NaN,keyboard,keyboard,inf,1131_hp_dnn_inf_keyboard_10_n04505470_470.png
cornet-s,1,1132,NaN,keyboard,keyboard,inf,1132_hp_dnn_inf_keyboard_10_n03085013_19630.png
cornet-s,1,1133,NaN,keyboard,keyboard,inf,1133_hp_dnn_inf_keyboard_10_n03085013_21397.png
cornet-s,1,1134,NaN,keyboard,keyboard,inf,1134_hp_dnn_inf_keyboard_10_n04505470_4723.png
cornet-s,1,1135,NaN,keyboard,keyboard,inf,1135_hp_dnn_inf_keyboard_10_n04505470_9788.png
cornet-s,1,1136,NaN,chair,keyboard,inf,1136_hp_dnn_inf_keyboard_10_n03085013_23213.png
cornet-s,1,1137,NaN,keyboard,keyboard,inf,1137_hp_dnn_inf_keyboard_10_n03085013_24385.png
cornet-s,1,1138,NaN,keyboard,keyboard,inf,1138_hp_dnn_inf_keyboard_10_n03085013_23658.png
cornet-s,1,1139,NaN,chair,keyboard,inf,1139_hp_dnn_inf_keyboard_10_n03085013_18821.png
cornet-s,1,1140,NaN,keyboard,keyboard,inf,1140_hp_dnn_inf_keyboard_10_n04505470_4753.png
cornet-s,1,1141,NaN,elephant,elephant,inf,1141_hp_dnn_inf_elephant_10_n02504458_2013.png
cornet-s,1,1142,NaN,elephant,elephant,inf,1142_hp_dnn_inf_elephant_10_n02504013_476.png
cornet-s,1,1143,NaN,elephant,elephant,inf,1143_hp_dnn_inf_elephant_10_n02504458_5320.png
cornet-s,1,1144,NaN,elephant,elephant,inf,1144_hp_dnn_inf_elephant_10_n02504013_17391.png
cornet-s,1,1145,NaN,elephant,elephant,inf,1145_hp_dnn_inf_elephant_10_n02504458_5245.png
cornet-s,1,1146,NaN,elephant,elephant,inf,1146_hp_dnn_inf_elephant_10_n02504458_4631.png
cornet-s,1,1147,NaN,elephant,elephant,inf,1147_hp_dnn_inf_elephant_10_n02504013_784.png
cornet-s,1,1148,NaN,elephant,elephant,inf,1148_hp_dnn_inf_elephant_10_n02504013_8780.png
cornet-s,1,1149,NaN,elephant,elephant,inf,1149_hp_dnn_inf_elephant_10_n02504013_9012.png
cornet-s,1,1150,NaN,elephant,elephant,inf,1150_hp_dnn_inf_elephant_10_n02504013_5165.png
cornet-s,1,1151,NaN,bicycle,bicycle,inf,1151_hp_dnn_inf_bicycle_10_n03792782_48457.png
cornet-s,1,1152,NaN,bicycle,bicycle,inf,1152_hp_dnn_inf_bicycle_10_n03792782_33450.png
cornet-s,1,1153,NaN,bicycle,bicycle,inf,1153_hp_dnn_inf_bicycle_10_n03792782_19527.png
cornet-s,1,1154,NaN,bicycle,bicycle,inf,1154_hp_dnn_inf_bicycle_10_n03792782_6839.png
cornet-s,1,1155,NaN,bicycle,bicycle,inf,1155_hp_dnn_inf_bicycle_10_n03792782_442.png
cornet-s,1,1156,NaN,bicycle,bicycle,inf,1156_hp_dnn_inf_bicycle_10_n02835271_12790.png
cornet-s,1,1157,NaN,bicycle,bicycle,inf,1157_hp_dnn_inf_bicycle_10_n03792782_10395.png
cornet-s,1,1158,NaN,bicycle,bicycle,inf,1158_hp_dnn_inf_bicycle_10_n03792782_3249.png
cornet-s,1,1159,NaN,bicycle,bicycle,inf,1159_hp_dnn_inf_bicycle_10_n02835271_2525.png
cornet-s,1,1160,NaN,bicycle,bicycle,inf,1160_hp_dnn_inf_bicycle_10_n02835271_845.png
cornet-s,1,1161,NaN,airplane,airplane,inf,1161_hp_dnn_inf_airplane_10_n02690373_4943.png
cornet-s,1,1162,NaN,airplane,airplane,inf,1162_hp_dnn_inf_airplane_10_n02690373_15097.png
cornet-s,1,1163,NaN,airplane,airplane,inf,1163_hp_dnn_inf_airplane_10_n02690373_4107.png
cornet-s,1,1164,NaN,airplane,airplane,inf,1164_hp_dnn_inf_airplane_10_n02690373_2324.png
cornet-s,1,1165,NaN,airplane,airplane,inf,1165_hp_dnn_inf_airplane_10_n02690373_9001.png
cornet-s,1,1166,NaN,airplane,airplane,inf,1166_hp_dnn_inf_airplane_10_n02690373_6116.png
cornet-s,1,1167,NaN,airplane,airplane,inf,1167_hp_dnn_inf_airplane_10_n02690373_5160.png
cornet-s,1,1168,NaN,airplane,airplane,inf,1168_hp_dnn_inf_airplane_10_n02690373_6914.png
cornet-s,1,1169,NaN,airplane,airplane,inf,1169_hp_dnn_inf_airplane_10_n02690373_5422.png
cornet-s,1,1170,NaN,airplane,airplane,inf,1170_hp_dnn_inf_airplane_10_n02690373_4429.png
cornet-s,1,1171,NaN,clock,clock,inf,1171_hp_dnn_inf_clock_10_n04548280_9700.png
cornet-s,1,1172,NaN,clock,clock,inf,1172_hp_dnn_inf_clock_10_n02708093_3114.png
cornet-s,1,1173,NaN,chair,clock,inf,1173_hp_dnn_inf_clock_10_n03196217_1038.png
cornet-s,1,1174,NaN,clock,clock,inf,1174_hp_dnn_inf_clock_10_n02708093_4893.png
cornet-s,1,1175,NaN,clock,clock,inf,1175_hp_dnn_inf_clock_10_n02708093_2886.png
cornet-s,1,1176,NaN,clock,clock,inf,1176_hp_dnn_inf_clock_10_n04548280_7886.png
cornet-s,1,1177,NaN,clock,clock,inf,1177_hp_dnn_inf_clock_10_n02708093_7060.png
cornet-s,1,1178,NaN,clock,clock,inf,1178_hp_dnn_inf_clock_10_n02708093_4498.png
cornet-s,1,1179,NaN,clock,clock,inf,1179_hp_dnn_inf_clock_10_n04548280_494.png
cornet-s,1,1180,NaN,clock,clock,inf,1180_hp_dnn_inf_clock_10_n02708093_6768.png
cornet-s,1,1181,NaN,oven,oven,inf,1181_hp_dnn_inf_oven_10_n04111531_857.png
cornet-s,1,1182,NaN,oven,oven,inf,1182_hp_dnn_inf_oven_10_n04111531_3805.png
cornet-s,1,1183,NaN,oven,oven,inf,1183_hp_dnn_inf_oven_10_n04111531_17433.png
cornet-s,1,1184,NaN,oven,oven,inf,1184_hp_dnn_inf_oven_10_n04111531_4665.png
cornet-s,1,1185,NaN,oven,oven,inf,1185_hp_dnn_inf_oven_10_n04111531_766.png
cornet-s,1,1186,NaN,oven,oven,inf,1186_hp_dnn_inf_oven_10_n04111531_7741.png
cornet-s,1,1187,NaN,oven,oven,inf,1187_hp_dnn_inf_oven_10_n04111531_20369.png
cornet-s,1,1188,NaN,oven,oven,inf,1188_hp_dnn_inf_oven_10_n04111531_8046.png
cornet-s,1,1189,NaN,oven,oven,inf,1189_hp_dnn_inf_oven_10_n04111531_274.png
cornet-s,1,1190,NaN,oven,oven,inf,1190_hp_dnn_inf_oven_10_n04111531_5582.png
cornet-s,1,1191,NaN,chair,chair,inf,1191_hp_dnn_inf_chair_10_n04099969_5010.png
cornet-s,1,1192,NaN,chair,chair,inf,1192_hp_dnn_inf_chair_10_n02791124_356.png
cornet-s,1,1193,NaN,chair,chair,inf,1193_hp_dnn_inf_chair_10_n04429376_16759.png
cornet-s,1,1194,NaN,chair,chair,inf,1194_hp_dnn_inf_chair_10_n02791124_612.png
cornet-s,1,1195,NaN,chair,chair,inf,1195_hp_dnn_inf_chair_10_n03376595_9851.png
cornet-s,1,1196,NaN,chair,chair,inf,1196_hp_dnn_inf_chair_10_n04099969_5493.png
cornet-s,1,1197,NaN,chair,chair,inf,1197_hp_dnn_inf_chair_10_n04429376_3241.png
cornet-s,1,1198,NaN,chair,chair,inf,1198_hp_dnn_inf_chair_10_n02791124_624.png
cornet-s,1,1199,NaN,chair,chair,inf,1199_hp_dnn_inf_chair_10_n02791124_12839.png
cornet-s,1,1200,NaN,chair,chair,inf,1200_hp_dnn_inf_chair_10_n04099969_14691.png
cornet-s,1,1201,NaN,bear,bear,inf,1201_hp_dnn_inf_bear_10_n02134418_1664.png
cornet-s,1,1202,NaN,bear,bear,inf,1202_hp_dnn_inf_bear_10_n02134084_3723.png
cornet-s,1,1203,NaN,bear,bear,inf,1203_hp_dnn_inf_bear_10_n02134084_8015.png
cornet-s,1,1204,NaN,bear,bear,inf,1204_hp_dnn_inf_bear_10_n02133161_13280.png
cornet-s,1,1205,NaN,bear,bear,inf,1205_hp_dnn_inf_bear_10_n02134418_1661.png
cornet-s,1,1206,NaN,bear,bear,inf,1206_hp_dnn_inf_bear_10_n02134084_38915.png
cornet-s,1,1207,NaN,bear,bear,inf,1207_hp_dnn_inf_bear_10_n02133161_10330.png
cornet-s,1,1208,NaN,bear,bear,inf,1208_hp_dnn_inf_bear_10_n02134418_581.png
cornet-s,1,1209,NaN,bear,bear,inf,1209_hp_dnn_inf_bear_10_n02134418_1267.png
cornet-s,1,1210,NaN,bear,bear,inf,1210_hp_dnn_inf_bear_10_n02132136_1380.png
cornet-s,1,1211,NaN,car,boat,inf,1211_hp_dnn_inf_boat_10_n03662601_1301.png
cornet-s,1,1212,NaN,boat,boat,inf,1212_hp_dnn_inf_boat_10_n02951358_2899.png
cornet-s,1,1213,NaN,boat,boat,inf,1213_hp_dnn_inf_boat_10_n03344393_14068.png
cornet-s,1,1214,NaN,boat,boat,inf,1214_hp_dnn_inf_boat_10_n03662601_3955.png
cornet-s,1,1215,NaN,boat,boat,inf,1215_hp_dnn_inf_boat_10_n03344393_6541.png
cornet-s,1,1216,NaN,boat,boat,inf,1216_hp_dnn_inf_boat_10_n02951358_3016.png
cornet-s,1,1217,NaN,boat,boat,inf,1217_hp_dnn_inf_boat_10_n04612504_35711.png
cornet-s,1,1218,NaN,boat,boat,inf,1218_hp_dnn_inf_boat_10_n03662601_1229.png
cornet-s,1,1219,NaN,boat,boat,inf,1219_hp_dnn_inf_boat_10_n02951358_30458.png
cornet-s,1,1220,NaN,boat,boat,inf,1220_hp_dnn_inf_boat_10_n03662601_10144.png
cornet-s,1,1221,NaN,cat,cat,inf,1221_hp_dnn_inf_cat_10_n02125311_17846.png
cornet-s,1,1222,NaN,cat,cat,inf,1222_hp_dnn_inf_cat_10_n02123159_6362.png
cornet-s,1,1223,NaN,cat,cat,inf,1223_hp_dnn_inf_cat_10_n02123394_8311.png
cornet-s,1,1224,NaN,cat,cat,inf,1224_hp_dnn_inf_cat_10_n02124075_15032.png
cornet-s,1,1225,NaN,cat,cat,inf,1225_hp_dnn_inf_cat_10_n02123597_2219.png
cornet-s,1,1226,NaN,cat,cat,inf,1226_hp_dnn_inf_cat_10_n02123159_1657.png
cornet-s,1,1227,NaN,cat,cat,inf,1227_hp_dnn_inf_cat_10_n02123597_11761.png
cornet-s,1,1228,NaN,cat,cat,inf,1228_hp_dnn_inf_cat_10_n02123045_12632.png
cornet-s,1,1229,NaN,bottle,cat,inf,1229_hp_dnn_inf_cat_10_n02123597_13934.png
cornet-s,1,1230,NaN,chair,cat,inf,1230_hp_dnn_inf_cat_10_n02123597_7485.png
cornet-s,1,1231,NaN,bottle,bottle,inf,1231_hp_dnn_inf_bottle_10_n04591713_7011.png
cornet-s,1,1232,NaN,bottle,bottle,inf,1232_hp_dnn_inf_bottle_10_n03937543_2757.png
cornet-s,1,1233,NaN,bottle,bottle,inf,1233_hp_dnn_inf_bottle_10_n02823428_2244.png
cornet-s,1,1234,NaN,bottle,bottle,inf,1234_hp_dnn_inf_bottle_10_n03983396_6019.png
cornet-s,1,1235,NaN,bottle,bottle,inf,1235_hp_dnn_inf_bottle_10_n03937543_1120.png
cornet-s,1,1236,NaN,bottle,bottle,inf,1236_hp_dnn_inf_bottle_10_n04557648_3282.png
cornet-s,1,1237,NaN,bottle,bottle,inf,1237_hp_dnn_inf_bottle_10_n03937543_2336.png
cornet-s,1,1238,NaN,bottle,bottle,inf,1238_hp_dnn_inf_bottle_10_n04560804_6865.png
cornet-s,1,1239,NaN,bottle,bottle,inf,1239_hp_dnn_inf_bottle_10_n03983396_10021.png
cornet-s,1,1240,NaN,bottle,bottle,inf,1240_hp_dnn_inf_bottle_10_n03937543_7676.png
cornet-s,1,1241,NaN,truck,truck,inf,1241_hp_dnn_inf_truck_10_n04467665_42126.png
cornet-s,1,1242,NaN,truck,truck,inf,1242_hp_dnn_inf_truck_10_n03417042_91.png
cornet-s,1,1243,NaN,truck,truck,inf,1243_hp_dnn_inf_truck_10_n03417042_8298.png
cornet-s,1,1244,NaN,truck,truck,inf,1244_hp_dnn_inf_truck_10_n04467665_59458.png
cornet-s,1,1245,NaN,truck,truck,inf,1245_hp_dnn_inf_truck_10_n03796401_8206.png
cornet-s,1,1246,NaN,truck,truck,inf,1246_hp_dnn_inf_truck_10_n03796401_197.png
cornet-s,1,1247,NaN,truck,truck,inf,1247_hp_dnn_inf_truck_10_n03417042_8891.png
cornet-s,1,1248,NaN,truck,truck,inf,1248_hp_dnn_inf_truck_10_n03417042_13651.png
cornet-s,1,1249,NaN,truck,truck,inf,1249_hp_dnn_inf_truck_10_n03796401_28712.png
cornet-s,1,1250,NaN,truck,truck,inf,1250_hp_dnn_inf_truck_10_n03417042_23953.png
cornet-s,1,1251,NaN,car,car,inf,1251_hp_dnn_inf_car_10_n04285008_12868.png
cornet-s,1,1252,NaN,car,car,inf,1252_hp_dnn_inf_car_10_n02814533_5147.png
cornet-s,1,1253,NaN,car,car,inf,1253_hp_dnn_inf_car_10_n03100240_5121.png
cornet-s,1,1254,NaN,car,car,inf,1254_hp_dnn_inf_car_10_n02814533_32835.png
cornet-s,1,1255,NaN,car,car,inf,1255_hp_dnn_inf_car_10_n03100240_278.png
cornet-s,1,1256,NaN,car,car,inf,1256_hp_dnn_inf_car_10_n04285008_2603.png
cornet-s,1,1257,NaN,car,car,inf,1257_hp_dnn_inf_car_10_n04285008_8363.png
cornet-s,1,1258,NaN,car,car,inf,1258_hp_dnn_inf_car_10_n02814533_74685.png
