subj,session,trial,rt,object_response,category,condition,imagename
densenet121,1,1,NaN,airplane,airplane,NaN,airplane1.png
densenet121,1,2,NaN,airplane,airplane,NaN,airplane10.png
densenet121,1,3,NaN,chair,airplane,NaN,airplane2.png
densenet121,1,4,NaN,airplane,airplane,NaN,airplane3.png
densenet121,1,5,NaN,chair,airplane,NaN,airplane4.png
densenet121,1,6,NaN,airplane,airplane,NaN,airplane5.png
densenet121,1,7,NaN,chair,airplane,NaN,airplane6.png
densenet121,1,8,NaN,airplane,airplane,NaN,airplane7.png
densenet121,1,9,NaN,airplane,airplane,NaN,airplane8.png
densenet121,1,10,NaN,chair,airplane,NaN,airplane9.png
densenet121,1,11,NaN,knife,bear,NaN,bear1.png
densenet121,1,12,NaN,bear,bear,NaN,bear10.png
densenet121,1,13,NaN,elephant,bear,NaN,bear2.png
densenet121,1,14,NaN,knife,bear,NaN,bear3.png
densenet121,1,15,NaN,elephant,bear,NaN,bear4.png
densenet121,1,16,NaN,elephant,bear,NaN,bear5.png
densenet121,1,17,NaN,bird,bear,NaN,bear6.png
densenet121,1,18,NaN,elephant,bear,NaN,bear7.png
densenet121,1,19,NaN,bear,bear,NaN,bear8.png
densenet121,1,20,NaN,knife,bear,NaN,bear9.png
densenet121,1,21,NaN,bicycle,bicycle,NaN,bicycle1.png
densenet121,1,22,NaN,bicycle,bicycle,NaN,bicycle10.png
densenet121,1,23,NaN,chair,bicycle,NaN,bicycle2.png
densenet121,1,24,NaN,bicycle,bicycle,NaN,bicycle3.png
densenet121,1,25,NaN,bicycle,bicycle,NaN,bicycle4.png
densenet121,1,26,NaN,bicycle,bicycle,NaN,bicycle5.png
densenet121,1,27,NaN,chair,bicycle,NaN,bicycle6.png
densenet121,1,28,NaN,bicycle,bicycle,NaN,bicycle7.png
densenet121,1,29,NaN,bicycle,bicycle,NaN,bicycle8.png
densenet121,1,30,NaN,bicycle,bicycle,NaN,bicycle9.png
densenet121,1,31,NaN,bird,bird,NaN,bird1.png
densenet121,1,32,NaN,knife,bird,NaN,bird10.png
densenet121,1,33,NaN,knife,bird,NaN,bird2.png
densenet121,1,34,NaN,chair,bird,NaN,bird3.png
densenet121,1,35,NaN,knife,bird,NaN,bird4.png
densenet121,1,36,NaN,bird,bird,NaN,bird5.png
densenet121,1,37,NaN,bird,bird,NaN,bird6.png
densenet121,1,38,NaN,oven,bird,NaN,bird7.png
densenet121,1,39,NaN,chair,bird,NaN,bird8.png
densenet121,1,40,NaN,bird,bird,NaN,bird9.png
densenet121,1,41,NaN,knife,boat,NaN,boat1.png
densenet121,1,42,NaN,knife,boat,NaN,boat10.png
densenet121,1,43,NaN,knife,boat,NaN,boat2.png
densenet121,1,44,NaN,truck,boat,NaN,boat3.png
densenet121,1,45,NaN,knife,boat,NaN,boat4.png
densenet121,1,46,NaN,clock,boat,NaN,boat5.png
densenet121,1,47,NaN,knife,boat,NaN,boat6.png
densenet121,1,48,NaN,knife,boat,NaN,boat7.png
densenet121,1,49,NaN,knife,boat,NaN,boat8.png
densenet121,1,50,NaN,knife,boat,NaN,boat9.png
densenet121,1,51,NaN,bottle,bottle,NaN,bottle1.png
densenet121,1,52,NaN,bottle,bottle,NaN,bottle10.png
densenet121,1,53,NaN,bottle,bottle,NaN,bottle2.png
densenet121,1,54,NaN,bottle,bottle,NaN,bottle3.png
densenet121,1,55,NaN,bottle,bottle,NaN,bottle4.png
densenet121,1,56,NaN,bottle,bottle,NaN,bottle5.png
densenet121,1,57,NaN,bottle,bottle,NaN,bottle6.png
densenet121,1,58,NaN,bottle,bottle,NaN,bottle7.png
densenet121,1,59,NaN,bottle,bottle,NaN,bottle8.png
densenet121,1,60,NaN,bottle,bottle,NaN,bottle9.png
densenet121,1,61,NaN,knife,car,NaN,car1.png
densenet121,1,62,NaN,knife,car,NaN,car10.png
densenet121,1,63,NaN,knife,car,NaN,car2.png
densenet121,1,64,NaN,knife,car,NaN,car3.png
densenet121,1,65,NaN,bear,car,NaN,car4.png
densenet121,1,66,NaN,clock,car,NaN,car5.png
densenet121,1,67,NaN,knife,car,NaN,car6.png
densenet121,1,68,NaN,chair,car,NaN,car7.png
densenet121,1,69,NaN,knife,car,NaN,car8.png
densenet121,1,70,NaN,chair,car,NaN,car9.png
densenet121,1,71,NaN,cat,cat,NaN,cat1.png
densenet121,1,72,NaN,bird,cat,NaN,cat10.png
densenet121,1,73,NaN,clock,cat,NaN,cat2.png
densenet121,1,74,NaN,knife,cat,NaN,cat3.png
densenet121,1,75,NaN,cat,cat,NaN,cat4.png
densenet121,1,76,NaN,bear,cat,NaN,cat5.png
densenet121,1,77,NaN,cat,cat,NaN,cat6.png
densenet121,1,78,NaN,chair,cat,NaN,cat7.png
densenet121,1,79,NaN,clock,cat,NaN,cat8.png
densenet121,1,80,NaN,bear,cat,NaN,cat9.png
densenet121,1,81,NaN,chair,chair,NaN,chair1.png
densenet121,1,82,NaN,chair,chair,NaN,chair10.png
densenet121,1,83,NaN,chair,chair,NaN,chair2.png
densenet121,1,84,NaN,chair,chair,NaN,chair3.png
densenet121,1,85,NaN,chair,chair,NaN,chair4.png
densenet121,1,86,NaN,chair,chair,NaN,chair5.png
densenet121,1,87,NaN,chair,chair,NaN,chair6.png
densenet121,1,88,NaN,chair,chair,NaN,chair7.png
densenet121,1,89,NaN,chair,chair,NaN,chair8.png
densenet121,1,90,NaN,chair,chair,NaN,chair9.png
densenet121,1,91,NaN,knife,clock,NaN,clock1.png
densenet121,1,92,NaN,chair,clock,NaN,clock10.png
densenet121,1,93,NaN,clock,clock,NaN,clock2.png
densenet121,1,94,NaN,clock,clock,NaN,clock3.png
densenet121,1,95,NaN,knife,clock,NaN,clock4.png
densenet121,1,96,NaN,clock,clock,NaN,clock5.png
densenet121,1,97,NaN,clock,clock,NaN,clock6.png
densenet121,1,98,NaN,clock,clock,NaN,clock7.png
densenet121,1,99,NaN,bottle,clock,NaN,clock8.png
densenet121,1,100,NaN,clock,clock,NaN,clock9.png
densenet121,1,101,NaN,knife,dog,NaN,dog1.png
densenet121,1,102,NaN,chair,dog,NaN,dog10.png
densenet121,1,103,NaN,knife,dog,NaN,dog2.png
densenet121,1,104,NaN,bear,dog,NaN,dog3.png
densenet121,1,105,NaN,keyboard,dog,NaN,dog4.png
densenet121,1,106,NaN,knife,dog,NaN,dog5.png
densenet121,1,107,NaN,elephant,dog,NaN,dog6.png
densenet121,1,108,NaN,knife,dog,NaN,dog7.png
densenet121,1,109,NaN,elephant,dog,NaN,dog8.png
densenet121,1,110,NaN,dog,dog,NaN,dog9.png
densenet121,1,111,NaN,elephant,elephant,NaN,elephant1.png
densenet121,1,112,NaN,clock,elephant,NaN,elephant10.png
densenet121,1,113,NaN,elephant,elephant,NaN,elephant2.png
densenet121,1,114,NaN,knife,elephant,NaN,elephant3.png
densenet121,1,115,NaN,elephant,elephant,NaN,elephant4.png
densenet121,1,116,NaN,elephant,elephant,NaN,elephant5.png
densenet121,1,117,NaN,elephant,elephant,NaN,elephant6.png
densenet121,1,118,NaN,elephant,elephant,NaN,elephant7.png
densenet121,1,119,NaN,elephant,elephant,NaN,elephant8.png
densenet121,1,120,NaN,elephant,elephant,NaN,elephant9.png
densenet121,1,121,NaN,knife,keyboard,NaN,keyboard1.png
densenet121,1,122,NaN,knife,keyboard,NaN,keyboard10.png
densenet121,1,123,NaN,knife,keyboard,NaN,keyboard2.png
densenet121,1,124,NaN,knife,keyboard,NaN,keyboard3.png
densenet121,1,125,NaN,knife,keyboard,NaN,keyboard4.png
densenet121,1,126,NaN,knife,keyboard,NaN,keyboard5.png
densenet121,1,127,NaN,knife,keyboard,NaN,keyboard6.png
densenet121,1,128,NaN,knife,keyboard,NaN,keyboard7.png
densenet121,1,129,NaN,knife,keyboard,NaN,keyboard8.png
densenet121,1,130,NaN,knife,keyboard,NaN,keyboard9.png
densenet121,1,131,NaN,knife,knife,NaN,knife1.png
densenet121,1,132,NaN,knife,knife,NaN,knife10.png
densenet121,1,133,NaN,knife,knife,NaN,knife2.png
densenet121,1,134,NaN,clock,knife,NaN,knife3.png
densenet121,1,135,NaN,knife,knife,NaN,knife4.png
densenet121,1,136,NaN,knife,knife,NaN,knife5.png
densenet121,1,137,NaN,knife,knife,NaN,knife6.png
densenet121,1,138,NaN,knife,knife,NaN,knife7.png
densenet121,1,139,NaN,knife,knife,NaN,knife8.png
densenet121,1,140,NaN,knife,knife,NaN,knife9.png
densenet121,1,141,NaN,knife,oven,NaN,oven1.png
densenet121,1,142,NaN,knife,oven,NaN,oven10.png
densenet121,1,143,NaN,knife,oven,NaN,oven2.png
densenet121,1,144,NaN,knife,oven,NaN,oven3.png
densenet121,1,145,NaN,chair,oven,NaN,oven4.png
densenet121,1,146,NaN,chair,oven,NaN,oven5.png
densenet121,1,147,NaN,knife,oven,NaN,oven6.png
densenet121,1,148,NaN,chair,oven,NaN,oven7.png
densenet121,1,149,NaN,knife,oven,NaN,oven8.png
densenet121,1,150,NaN,clock,oven,NaN,oven9.png
densenet121,1,151,NaN,knife,truck,NaN,truck1.png
densenet121,1,152,NaN,chair,truck,NaN,truck10.png
densenet121,1,153,NaN,keyboard,truck,NaN,truck2.png
densenet121,1,154,NaN,knife,truck,NaN,truck3.png
densenet121,1,155,NaN,chair,truck,NaN,truck4.png
densenet121,1,156,NaN,knife,truck,NaN,truck5.png
densenet121,1,157,NaN,knife,truck,NaN,truck6.png
densenet121,1,158,NaN,keyboard,truck,NaN,truck7.png
densenet121,1,159,NaN,clock,truck,NaN,truck8.png
densenet121,1,160,NaN,knife,truck,NaN,truck9.png
