subj,session,trial,rt,object_response,category,condition,imagename
densenet201,1,1,NaN,airplane,airplane,NaN,airplane1.png
densenet201,1,2,NaN,knife,airplane,NaN,airplane10.png
densenet201,1,3,NaN,knife,airplane,NaN,airplane2.png
densenet201,1,4,NaN,knife,airplane,NaN,airplane3.png
densenet201,1,5,NaN,knife,airplane,NaN,airplane4.png
densenet201,1,6,NaN,knife,airplane,NaN,airplane5.png
densenet201,1,7,NaN,airplane,airplane,NaN,airplane6.png
densenet201,1,8,NaN,knife,airplane,NaN,airplane7.png
densenet201,1,9,NaN,knife,airplane,NaN,airplane8.png
densenet201,1,10,NaN,knife,airplane,NaN,airplane9.png
densenet201,1,11,NaN,clock,bear,NaN,bear1.png
densenet201,1,12,NaN,bird,bear,NaN,bear10.png
densenet201,1,13,NaN,clock,bear,NaN,bear2.png
densenet201,1,14,NaN,cat,bear,NaN,bear3.png
densenet201,1,15,NaN,clock,bear,NaN,bear4.png
densenet201,1,16,NaN,cat,bear,NaN,bear5.png
densenet201,1,17,NaN,clock,bear,NaN,bear6.png
densenet201,1,18,NaN,bird,bear,NaN,bear7.png
densenet201,1,19,NaN,clock,bear,NaN,bear8.png
densenet201,1,20,NaN,bear,bear,NaN,bear9.png
densenet201,1,21,NaN,knife,bicycle,NaN,bicycle1.png
densenet201,1,22,NaN,bottle,bicycle,NaN,bicycle10.png
densenet201,1,23,NaN,knife,bicycle,NaN,bicycle2.png
densenet201,1,24,NaN,knife,bicycle,NaN,bicycle3.png
densenet201,1,25,NaN,knife,bicycle,NaN,bicycle4.png
densenet201,1,26,NaN,bicycle,bicycle,NaN,bicycle5.png
densenet201,1,27,NaN,knife,bicycle,NaN,bicycle6.png
densenet201,1,28,NaN,chair,bicycle,NaN,bicycle7.png
densenet201,1,29,NaN,chair,bicycle,NaN,bicycle8.png
densenet201,1,30,NaN,bicycle,bicycle,NaN,bicycle9.png
densenet201,1,31,NaN,clock,bird,NaN,bird1.png
densenet201,1,32,NaN,knife,bird,NaN,bird10.png
densenet201,1,33,NaN,bird,bird,NaN,bird2.png
densenet201,1,34,NaN,elephant,bird,NaN,bird3.png
densenet201,1,35,NaN,cat,bird,NaN,bird4.png
densenet201,1,36,NaN,bottle,bird,NaN,bird5.png
densenet201,1,37,NaN,bird,bird,NaN,bird6.png
densenet201,1,38,NaN,airplane,bird,NaN,bird7.png
densenet201,1,39,NaN,chair,bird,NaN,bird8.png
densenet201,1,40,NaN,chair,bird,NaN,bird9.png
densenet201,1,41,NaN,knife,boat,NaN,boat1.png
densenet201,1,42,NaN,knife,boat,NaN,boat10.png
densenet201,1,43,NaN,knife,boat,NaN,boat2.png
densenet201,1,44,NaN,knife,boat,NaN,boat3.png
densenet201,1,45,NaN,knife,boat,NaN,boat4.png
densenet201,1,46,NaN,clock,boat,NaN,boat5.png
densenet201,1,47,NaN,knife,boat,NaN,boat6.png
densenet201,1,48,NaN,bottle,boat,NaN,boat7.png
densenet201,1,49,NaN,knife,boat,NaN,boat8.png
densenet201,1,50,NaN,bird,boat,NaN,boat9.png
densenet201,1,51,NaN,bottle,bottle,NaN,bottle1.png
densenet201,1,52,NaN,bottle,bottle,NaN,bottle10.png
densenet201,1,53,NaN,bottle,bottle,NaN,bottle2.png
densenet201,1,54,NaN,bottle,bottle,NaN,bottle3.png
densenet201,1,55,NaN,bottle,bottle,NaN,bottle4.png
densenet201,1,56,NaN,bottle,bottle,NaN,bottle5.png
densenet201,1,57,NaN,bottle,bottle,NaN,bottle6.png
densenet201,1,58,NaN,bottle,bottle,NaN,bottle7.png
densenet201,1,59,NaN,bottle,bottle,NaN,bottle8.png
densenet201,1,60,NaN,bottle,bottle,NaN,bottle9.png
densenet201,1,61,NaN,bottle,car,NaN,car1.png
densenet201,1,62,NaN,knife,car,NaN,car10.png
densenet201,1,63,NaN,knife,car,NaN,car2.png
densenet201,1,64,NaN,knife,car,NaN,car3.png
densenet201,1,65,NaN,knife,car,NaN,car4.png
densenet201,1,66,NaN,bottle,car,NaN,car5.png
densenet201,1,67,NaN,bottle,car,NaN,car6.png
densenet201,1,68,NaN,knife,car,NaN,car7.png
densenet201,1,69,NaN,knife,car,NaN,car8.png
densenet201,1,70,NaN,car,car,NaN,car9.png
densenet201,1,71,NaN,cat,cat,NaN,cat1.png
densenet201,1,72,NaN,clock,cat,NaN,cat10.png
densenet201,1,73,NaN,cat,cat,NaN,cat2.png
densenet201,1,74,NaN,knife,cat,NaN,cat3.png
densenet201,1,75,NaN,cat,cat,NaN,cat4.png
densenet201,1,76,NaN,bird,cat,NaN,cat5.png
densenet201,1,77,NaN,cat,cat,NaN,cat6.png
densenet201,1,78,NaN,bird,cat,NaN,cat7.png
densenet201,1,79,NaN,clock,cat,NaN,cat8.png
densenet201,1,80,NaN,cat,cat,NaN,cat9.png
densenet201,1,81,NaN,chair,chair,NaN,chair1.png
densenet201,1,82,NaN,chair,chair,NaN,chair10.png
densenet201,1,83,NaN,chair,chair,NaN,chair2.png
densenet201,1,84,NaN,chair,chair,NaN,chair3.png
densenet201,1,85,NaN,chair,chair,NaN,chair4.png
densenet201,1,86,NaN,chair,chair,NaN,chair5.png
densenet201,1,87,NaN,bottle,chair,NaN,chair6.png
densenet201,1,88,NaN,chair,chair,NaN,chair7.png
densenet201,1,89,NaN,chair,chair,NaN,chair8.png
densenet201,1,90,NaN,chair,chair,NaN,chair9.png
densenet201,1,91,NaN,clock,clock,NaN,clock1.png
densenet201,1,92,NaN,clock,clock,NaN,clock10.png
densenet201,1,93,NaN,clock,clock,NaN,clock2.png
densenet201,1,94,NaN,clock,clock,NaN,clock3.png
densenet201,1,95,NaN,bottle,clock,NaN,clock4.png
densenet201,1,96,NaN,clock,clock,NaN,clock5.png
densenet201,1,97,NaN,clock,clock,NaN,clock6.png
densenet201,1,98,NaN,clock,clock,NaN,clock7.png
densenet201,1,99,NaN,clock,clock,NaN,clock8.png
densenet201,1,100,NaN,clock,clock,NaN,clock9.png
densenet201,1,101,NaN,bottle,dog,NaN,dog1.png
densenet201,1,102,NaN,bottle,dog,NaN,dog10.png
densenet201,1,103,NaN,bird,dog,NaN,dog2.png
densenet201,1,104,NaN,clock,dog,NaN,dog3.png
densenet201,1,105,NaN,cat,dog,NaN,dog4.png
densenet201,1,106,NaN,clock,dog,NaN,dog5.png
densenet201,1,107,NaN,bird,dog,NaN,dog6.png
densenet201,1,108,NaN,elephant,dog,NaN,dog7.png
densenet201,1,109,NaN,knife,dog,NaN,dog8.png
densenet201,1,110,NaN,clock,dog,NaN,dog9.png
densenet201,1,111,NaN,knife,elephant,NaN,elephant1.png
densenet201,1,112,NaN,chair,elephant,NaN,elephant10.png
densenet201,1,113,NaN,knife,elephant,NaN,elephant2.png
densenet201,1,114,NaN,knife,elephant,NaN,elephant3.png
densenet201,1,115,NaN,clock,elephant,NaN,elephant4.png
densenet201,1,116,NaN,clock,elephant,NaN,elephant5.png
densenet201,1,117,NaN,bird,elephant,NaN,elephant6.png
densenet201,1,118,NaN,bottle,elephant,NaN,elephant7.png
densenet201,1,119,NaN,clock,elephant,NaN,elephant8.png
densenet201,1,120,NaN,bird,elephant,NaN,elephant9.png
densenet201,1,121,NaN,keyboard,keyboard,NaN,keyboard1.png
densenet201,1,122,NaN,keyboard,keyboard,NaN,keyboard10.png
densenet201,1,123,NaN,keyboard,keyboard,NaN,keyboard2.png
densenet201,1,124,NaN,knife,keyboard,NaN,keyboard3.png
densenet201,1,125,NaN,knife,keyboard,NaN,keyboard4.png
densenet201,1,126,NaN,keyboard,keyboard,NaN,keyboard5.png
densenet201,1,127,NaN,knife,keyboard,NaN,keyboard6.png
densenet201,1,128,NaN,knife,keyboard,NaN,keyboard7.png
densenet201,1,129,NaN,keyboard,keyboard,NaN,keyboard8.png
densenet201,1,130,NaN,keyboard,keyboard,NaN,keyboard9.png
densenet201,1,131,NaN,knife,knife,NaN,knife1.png
densenet201,1,132,NaN,knife,knife,NaN,knife10.png
densenet201,1,133,NaN,knife,knife,NaN,knife2.png
densenet201,1,134,NaN,knife,knife,NaN,knife3.png
densenet201,1,135,NaN,knife,knife,NaN,knife4.png
densenet201,1,136,NaN,knife,knife,NaN,knife5.png
densenet201,1,137,NaN,knife,knife,NaN,knife6.png
densenet201,1,138,NaN,knife,knife,NaN,knife7.png
densenet201,1,139,NaN,knife,knife,NaN,knife8.png
densenet201,1,140,NaN,knife,knife,NaN,knife9.png
densenet201,1,141,NaN,oven,oven,NaN,oven1.png
densenet201,1,142,NaN,oven,oven,NaN,oven10.png
densenet201,1,143,NaN,oven,oven,NaN,oven2.png
densenet201,1,144,NaN,knife,oven,NaN,oven3.png
densenet201,1,145,NaN,knife,oven,NaN,oven4.png
densenet201,1,146,NaN,knife,oven,NaN,oven5.png
densenet201,1,147,NaN,chair,oven,NaN,oven6.png
densenet201,1,148,NaN,chair,oven,NaN,oven7.png
densenet201,1,149,NaN,oven,oven,NaN,oven8.png
densenet201,1,150,NaN,bottle,oven,NaN,oven9.png
densenet201,1,151,NaN,oven,truck,NaN,truck1.png
densenet201,1,152,NaN,bottle,truck,NaN,truck10.png
densenet201,1,153,NaN,clock,truck,NaN,truck2.png
densenet201,1,154,NaN,knife,truck,NaN,truck3.png
densenet201,1,155,NaN,knife,truck,NaN,truck4.png
densenet201,1,156,NaN,clock,truck,NaN,truck5.png
densenet201,1,157,NaN,knife,truck,NaN,truck6.png
densenet201,1,158,NaN,clock,truck,NaN,truck7.png
densenet201,1,159,NaN,knife,truck,NaN,truck8.png
densenet201,1,160,NaN,clock,truck,NaN,truck9.png
