subj,session,trial,rt,object_response,category,condition,imagename
cornet-s,7,1,NaN,knife,knife,c100,7681_cop_dnn_c100_knife_10_n03041632_4879.png
cornet-s,7,2,NaN,knife,knife,c100,7682_cop_dnn_c100_knife_10_n03041632_47410.png
cornet-s,7,3,NaN,knife,knife,c100,7683_cop_dnn_c100_knife_10_n03041632_2184.png
cornet-s,7,4,NaN,knife,knife,c100,7684_cop_dnn_c100_knife_10_n03041632_2630.png
cornet-s,7,5,NaN,knife,knife,c100,7685_cop_dnn_c100_knife_10_n03041632_41381.png
cornet-s,7,6,NaN,knife,knife,c100,7686_cop_dnn_c100_knife_10_n03041632_7279.png
cornet-s,7,7,NaN,knife,knife,c100,7687_cop_dnn_c100_knife_10_n03041632_4808.png
cornet-s,7,8,NaN,knife,knife,c100,7688_cop_dnn_c100_knife_10_n03041632_20433.png
cornet-s,7,9,NaN,knife,knife,c100,7689_cop_dnn_c100_knife_10_n03041632_21590.png
cornet-s,7,10,NaN,knife,knife,c100,7690_cop_dnn_c100_knife_10_n03041632_38535.png
cornet-s,7,11,NaN,keyboard,keyboard,c100,7691_cop_dnn_c100_keyboard_10_n04505470_6426.png
cornet-s,7,12,NaN,keyboard,keyboard,c100,7692_cop_dnn_c100_keyboard_10_n04505470_10558.png
cornet-s,7,13,NaN,keyboard,keyboard,c100,7693_cop_dnn_c100_keyboard_10_n04505470_3286.png
cornet-s,7,14,NaN,keyboard,keyboard,c100,7694_cop_dnn_c100_keyboard_10_n03085013_18621.png
cornet-s,7,15,NaN,keyboard,keyboard,c100,7695_cop_dnn_c100_keyboard_10_n04505470_4507.png
cornet-s,7,16,NaN,keyboard,keyboard,c100,7696_cop_dnn_c100_keyboard_10_n04505470_4944.png
cornet-s,7,17,NaN,keyboard,keyboard,c100,7697_cop_dnn_c100_keyboard_10_n03085013_23843.png
cornet-s,7,18,NaN,keyboard,keyboard,c100,7698_cop_dnn_c100_keyboard_10_n04505470_2608.png
cornet-s,7,19,NaN,keyboard,keyboard,c100,7699_cop_dnn_c100_keyboard_10_n03085013_25443.png
cornet-s,7,20,NaN,keyboard,keyboard,c100,7700_cop_dnn_c100_keyboard_10_n03085013_18979.png
cornet-s,7,21,NaN,elephant,elephant,c100,7701_cop_dnn_c100_elephant_10_n02504458_3066.png
cornet-s,7,22,NaN,elephant,elephant,c100,7702_cop_dnn_c100_elephant_10_n02504458_6130.png
cornet-s,7,23,NaN,elephant,elephant,c100,7703_cop_dnn_c100_elephant_10_n02504013_6034.png
cornet-s,7,24,NaN,elephant,elephant,c100,7704_cop_dnn_c100_elephant_10_n02504013_817.png
cornet-s,7,25,NaN,elephant,elephant,c100,7705_cop_dnn_c100_elephant_10_n02504013_6121.png
cornet-s,7,26,NaN,elephant,elephant,c100,7706_cop_dnn_c100_elephant_10_n02504013_10390.png
cornet-s,7,27,NaN,elephant,elephant,c100,7707_cop_dnn_c100_elephant_10_n02504013_242.png
cornet-s,7,28,NaN,elephant,elephant,c100,7708_cop_dnn_c100_elephant_10_n02504013_2924.png
cornet-s,7,29,NaN,elephant,elephant,c100,7709_cop_dnn_c100_elephant_10_n02504458_2494.png
cornet-s,7,30,NaN,elephant,elephant,c100,7710_cop_dnn_c100_elephant_10_n02504013_1844.png
cornet-s,7,31,NaN,bicycle,bicycle,c100,7711_cop_dnn_c100_bicycle_10_n02835271_8617.png
cornet-s,7,32,NaN,bicycle,bicycle,c100,7712_cop_dnn_c100_bicycle_10_n02835271_14820.png
cornet-s,7,33,NaN,bicycle,bicycle,c100,7713_cop_dnn_c100_bicycle_10_n02835271_14228.png
cornet-s,7,34,NaN,bicycle,bicycle,c100,7714_cop_dnn_c100_bicycle_10_n02835271_8109.png
cornet-s,7,35,NaN,bicycle,bicycle,c100,7715_cop_dnn_c100_bicycle_10_n03792782_50904.png
cornet-s,7,36,NaN,bicycle,bicycle,c100,7716_cop_dnn_c100_bicycle_10_n03792782_42345.png
cornet-s,7,37,NaN,bicycle,bicycle,c100,7717_cop_dnn_c100_bicycle_10_n03792782_4659.png
cornet-s,7,38,NaN,bicycle,bicycle,c100,7718_cop_dnn_c100_bicycle_10_n02835271_6804.png
cornet-s,7,39,NaN,bicycle,bicycle,c100,7719_cop_dnn_c100_bicycle_10_n02835271_3529.png
cornet-s,7,40,NaN,bicycle,bicycle,c100,7720_cop_dnn_c100_bicycle_10_n03792782_59022.png
cornet-s,7,41,NaN,airplane,airplane,c100,7721_cop_dnn_c100_airplane_10_n02690373_5724.png
cornet-s,7,42,NaN,airplane,airplane,c100,7722_cop_dnn_c100_airplane_10_n02690373_2675.png
cornet-s,7,43,NaN,airplane,airplane,c100,7723_cop_dnn_c100_airplane_10_n02690373_2447.png
cornet-s,7,44,NaN,airplane,airplane,c100,7724_cop_dnn_c100_airplane_10_n02690373_3753.png
cornet-s,7,45,NaN,airplane,airplane,c100,7725_cop_dnn_c100_airplane_10_n02690373_3899.png
cornet-s,7,46,NaN,airplane,airplane,c100,7726_cop_dnn_c100_airplane_10_n02690373_6834.png
cornet-s,7,47,NaN,airplane,airplane,c100,7727_cop_dnn_c100_airplane_10_n02690373_7229.png
cornet-s,7,48,NaN,airplane,airplane,c100,7728_cop_dnn_c100_airplane_10_n02690373_3709.png
cornet-s,7,49,NaN,boat,airplane,c100,7729_cop_dnn_c100_airplane_10_n02690373_9175.png
cornet-s,7,50,NaN,airplane,airplane,c100,7730_cop_dnn_c100_airplane_10_n02690373_3639.png
cornet-s,7,51,NaN,clock,clock,c100,7731_cop_dnn_c100_clock_10_n02708093_6672.png
cornet-s,7,52,NaN,clock,clock,c100,7732_cop_dnn_c100_clock_10_n04548280_43.png
cornet-s,7,53,NaN,clock,clock,c100,7733_cop_dnn_c100_clock_10_n04548280_3854.png
cornet-s,7,54,NaN,clock,clock,c100,7734_cop_dnn_c100_clock_10_n04548280_5337.png
cornet-s,7,55,NaN,clock,clock,c100,7735_cop_dnn_c100_clock_10_n04548280_3161.png
cornet-s,7,56,NaN,clock,clock,c100,7736_cop_dnn_c100_clock_10_n02708093_145.png
cornet-s,7,57,NaN,clock,clock,c100,7737_cop_dnn_c100_clock_10_n03196217_1790.png
cornet-s,7,58,NaN,clock,clock,c100,7738_cop_dnn_c100_clock_10_n03196217_1255.png
cornet-s,7,59,NaN,clock,clock,c100,7739_cop_dnn_c100_clock_10_n03196217_775.png
cornet-s,7,60,NaN,clock,clock,c100,7740_cop_dnn_c100_clock_10_n04548280_3153.png
cornet-s,7,61,NaN,oven,oven,c100,7741_cop_dnn_c100_oven_10_n04111531_6120.png
cornet-s,7,62,NaN,oven,oven,c100,7742_cop_dnn_c100_oven_10_n04111531_2116.png
cornet-s,7,63,NaN,oven,oven,c100,7743_cop_dnn_c100_oven_10_n04111531_17006.png
cornet-s,7,64,NaN,oven,oven,c100,7744_cop_dnn_c100_oven_10_n04111531_6590.png
cornet-s,7,65,NaN,oven,oven,c100,7745_cop_dnn_c100_oven_10_n04111531_5578.png
cornet-s,7,66,NaN,oven,oven,c100,7746_cop_dnn_c100_oven_10_n04111531_2771.png
cornet-s,7,67,NaN,oven,oven,c100,7747_cop_dnn_c100_oven_10_n04111531_9429.png
cornet-s,7,68,NaN,oven,oven,c100,7748_cop_dnn_c100_oven_10_n04111531_1826.png
cornet-s,7,69,NaN,chair,oven,c100,7749_cop_dnn_c100_oven_10_n04111531_3193.png
cornet-s,7,70,NaN,oven,oven,c100,7750_cop_dnn_c100_oven_10_n04111531_6489.png
cornet-s,7,71,NaN,chair,chair,c100,7751_cop_dnn_c100_chair_10_n02791124_4780.png
cornet-s,7,72,NaN,chair,chair,c100,7752_cop_dnn_c100_chair_10_n03376595_13578.png
cornet-s,7,73,NaN,chair,chair,c100,7753_cop_dnn_c100_chair_10_n04099969_1829.png
cornet-s,7,74,NaN,chair,chair,c100,7754_cop_dnn_c100_chair_10_n02791124_499.png
cornet-s,7,75,NaN,chair,chair,c100,7755_cop_dnn_c100_chair_10_n02791124_5201.png
cornet-s,7,76,NaN,chair,chair,c100,7756_cop_dnn_c100_chair_10_n03376595_9093.png
cornet-s,7,77,NaN,chair,chair,c100,7757_cop_dnn_c100_chair_10_n02791124_992.png
cornet-s,7,78,NaN,chair,chair,c100,7758_cop_dnn_c100_chair_10_n04099969_40892.png
cornet-s,7,79,NaN,chair,chair,c100,7759_cop_dnn_c100_chair_10_n04429376_6480.png
cornet-s,7,80,NaN,chair,chair,c100,7760_cop_dnn_c100_chair_10_n03376595_9226.png
cornet-s,7,81,NaN,bear,bear,c100,7761_cop_dnn_c100_bear_10_n02132136_18743.png
cornet-s,7,82,NaN,bear,bear,c100,7762_cop_dnn_c100_bear_10_n02134084_4726.png
cornet-s,7,83,NaN,bear,bear,c100,7763_cop_dnn_c100_bear_10_n02132136_10684.png
cornet-s,7,84,NaN,bear,bear,c100,7764_cop_dnn_c100_bear_10_n02134084_1536.png
cornet-s,7,85,NaN,bear,bear,c100,7765_cop_dnn_c100_bear_10_n02134418_2495.png
cornet-s,7,86,NaN,bear,bear,c100,7766_cop_dnn_c100_bear_10_n02134418_5139.png
cornet-s,7,87,NaN,bear,bear,c100,7767_cop_dnn_c100_bear_10_n02132136_10769.png
cornet-s,7,88,NaN,bear,bear,c100,7768_cop_dnn_c100_bear_10_n02133161_10715.png
cornet-s,7,89,NaN,bear,bear,c100,7769_cop_dnn_c100_bear_10_n02132136_24204.png
cornet-s,7,90,NaN,bear,bear,c100,7770_cop_dnn_c100_bear_10_n02134418_4559.png
cornet-s,7,91,NaN,boat,boat,c100,7771_cop_dnn_c100_boat_10_n03344393_2919.png
cornet-s,7,92,NaN,boat,boat,c100,7772_cop_dnn_c100_boat_10_n03344393_6324.png
cornet-s,7,93,NaN,boat,boat,c100,7773_cop_dnn_c100_boat_10_n03344393_5588.png
cornet-s,7,94,NaN,boat,boat,c100,7774_cop_dnn_c100_boat_10_n02951358_4189.png
cornet-s,7,95,NaN,boat,boat,c100,7775_cop_dnn_c100_boat_10_n03344393_8504.png
cornet-s,7,96,NaN,boat,boat,c100,7776_cop_dnn_c100_boat_10_n02951358_31518.png
cornet-s,7,97,NaN,boat,boat,c100,7777_cop_dnn_c100_boat_10_n03344393_6950.png
cornet-s,7,98,NaN,boat,boat,c100,7778_cop_dnn_c100_boat_10_n04273569_14506.png
cornet-s,7,99,NaN,boat,boat,c100,7779_cop_dnn_c100_boat_10_n04273569_29319.png
cornet-s,7,100,NaN,boat,boat,c100,7780_cop_dnn_c100_boat_10_n04273569_3130.png
cornet-s,7,101,NaN,cat,cat,c100,7781_cop_dnn_c100_cat_10_n02123394_2167.png
cornet-s,7,102,NaN,cat,cat,c100,7782_cop_dnn_c100_cat_10_n02123597_9893.png
cornet-s,7,103,NaN,cat,cat,c100,7783_cop_dnn_c100_cat_10_n02123045_9404.png
cornet-s,7,104,NaN,cat,cat,c100,7784_cop_dnn_c100_cat_10_n02125311_13098.png
cornet-s,7,105,NaN,cat,cat,c100,7785_cop_dnn_c100_cat_10_n02123394_287.png
cornet-s,7,106,NaN,cat,cat,c100,7786_cop_dnn_c100_cat_10_n02123597_1708.png
cornet-s,7,107,NaN,cat,cat,c100,7787_cop_dnn_c100_cat_10_n02123159_2465.png
cornet-s,7,108,NaN,cat,cat,c100,7788_cop_dnn_c100_cat_10_n02123159_5960.png
cornet-s,7,109,NaN,cat,cat,c100,7789_cop_dnn_c100_cat_10_n02124075_2854.png
cornet-s,7,110,NaN,cat,cat,c100,7790_cop_dnn_c100_cat_10_n02123159_7967.png
cornet-s,7,111,NaN,bottle,bottle,c100,7791_cop_dnn_c100_bottle_10_n04560804_13773.png
cornet-s,7,112,NaN,bottle,bottle,c100,7792_cop_dnn_c100_bottle_10_n02823428_7357.png
cornet-s,7,113,NaN,bottle,bottle,c100,7793_cop_dnn_c100_bottle_10_n03983396_4713.png
cornet-s,7,114,NaN,bottle,bottle,c100,7794_cop_dnn_c100_bottle_10_n04560804_27690.png
cornet-s,7,115,NaN,bottle,bottle,c100,7795_cop_dnn_c100_bottle_10_n04591713_7835.png
cornet-s,7,116,NaN,bottle,bottle,c100,7796_cop_dnn_c100_bottle_10_n03937543_4386.png
cornet-s,7,117,NaN,bottle,bottle,c100,7797_cop_dnn_c100_bottle_10_n03937543_3094.png
cornet-s,7,118,NaN,bottle,bottle,c100,7798_cop_dnn_c100_bottle_10_n02823428_14980.png
cornet-s,7,119,NaN,bottle,bottle,c100,7799_cop_dnn_c100_bottle_10_n03983396_2760.png
cornet-s,7,120,NaN,bottle,bottle,c100,7800_cop_dnn_c100_bottle_10_n04557648_9408.png
cornet-s,7,121,NaN,truck,truck,c100,7801_cop_dnn_c100_truck_10_n04467665_707.png
cornet-s,7,122,NaN,truck,truck,c100,7802_cop_dnn_c100_truck_10_n04467665_28313.png
cornet-s,7,123,NaN,truck,truck,c100,7803_cop_dnn_c100_truck_10_n04467665_67081.png
cornet-s,7,124,NaN,truck,truck,c100,7804_cop_dnn_c100_truck_10_n03796401_5669.png
cornet-s,7,125,NaN,truck,truck,c100,7805_cop_dnn_c100_truck_10_n03796401_6596.png
cornet-s,7,126,NaN,truck,truck,c100,7806_cop_dnn_c100_truck_10_n03417042_5905.png
cornet-s,7,127,NaN,truck,truck,c100,7807_cop_dnn_c100_truck_10_n03417042_10520.png
cornet-s,7,128,NaN,truck,truck,c100,7808_cop_dnn_c100_truck_10_n04467665_47560.png
cornet-s,7,129,NaN,truck,truck,c100,7809_cop_dnn_c100_truck_10_n03796401_5.png
cornet-s,7,130,NaN,truck,truck,c100,7810_cop_dnn_c100_truck_10_n03796401_2457.png
cornet-s,7,131,NaN,truck,car,c100,7811_cop_dnn_c100_car_10_n03100240_4840.png
cornet-s,7,132,NaN,car,car,c100,7812_cop_dnn_c100_car_10_n04285008_5641.png
cornet-s,7,133,NaN,car,car,c100,7813_cop_dnn_c100_car_10_n02814533_7232.png
cornet-s,7,134,NaN,car,car,c100,7814_cop_dnn_c100_car_10_n03100240_7300.png
cornet-s,7,135,NaN,car,car,c100,7815_cop_dnn_c100_car_10_n03100240_5356.png
cornet-s,7,136,NaN,car,car,c100,7816_cop_dnn_c100_car_10_n03100240_6892.png
cornet-s,7,137,NaN,car,car,c100,7817_cop_dnn_c100_car_10_n02814533_24244.png
cornet-s,7,138,NaN,car,car,c100,7818_cop_dnn_c100_car_10_n02814533_4446.png
cornet-s,7,139,NaN,car,car,c100,7819_cop_dnn_c100_car_10_n03100240_5136.png
cornet-s,7,140,NaN,car,car,c100,7820_cop_dnn_c100_car_10_n02814533_1871.png
cornet-s,7,141,NaN,bird,bird,c100,7821_cop_dnn_c100_bird_10_n02027492_8940.png
cornet-s,7,142,NaN,bird,bird,c100,7822_cop_dnn_c100_bird_10_n01514859_1678.png
cornet-s,7,143,NaN,bird,bird,c100,7823_cop_dnn_c100_bird_10_n01622779_6745.png
cornet-s,7,144,NaN,chair,bird,c100,7824_cop_dnn_c100_bird_10_n02009229_4493.png
cornet-s,7,145,NaN,bird,bird,c100,7825_cop_dnn_c100_bird_10_n01531178_17967.png
cornet-s,7,146,NaN,bird,bird,c100,7826_cop_dnn_c100_bird_10_n01558993_4438.png
cornet-s,7,147,NaN,bird,bird,c100,7827_cop_dnn_c100_bird_10_n01592084_4940.png
cornet-s,7,148,NaN,bird,bird,c100,7828_cop_dnn_c100_bird_10_n01531178_52649.png
cornet-s,7,149,NaN,bird,bird,c100,7829_cop_dnn_c100_bird_10_n01534433_2073.png
cornet-s,7,150,NaN,bird,bird,c100,7830_cop_dnn_c100_bird_10_n01601694_6503.png
cornet-s,7,151,NaN,dog,dog,c100,7831_cop_dnn_c100_dog_10_n02086910_2918.png
cornet-s,7,152,NaN,dog,dog,c100,7832_cop_dnn_c100_dog_10_n02099267_4688.png
cornet-s,7,153,NaN,dog,dog,c100,7833_cop_dnn_c100_dog_10_n02102040_4124.png
cornet-s,7,154,NaN,dog,dog,c100,7834_cop_dnn_c100_dog_10_n02097209_5267.png
cornet-s,7,155,NaN,dog,dog,c100,7835_cop_dnn_c100_dog_10_n02106550_1024.png
cornet-s,7,156,NaN,dog,dog,c100,7836_cop_dnn_c100_dog_10_n02107574_3837.png
cornet-s,7,157,NaN,dog,dog,c100,7837_cop_dnn_c100_dog_10_n02097130_1464.png
cornet-s,7,158,NaN,dog,dog,c100,7838_cop_dnn_c100_dog_10_n02111500_701.png
cornet-s,7,159,NaN,cat,dog,c100,7839_cop_dnn_c100_dog_10_n02113023_98.png
cornet-s,7,160,NaN,dog,dog,c100,7840_cop_dnn_c100_dog_10_n02102177_5006.png
cornet-s,7,161,NaN,knife,knife,c50,7841_cop_dnn_c50_knife_10_n03041632_992.png
cornet-s,7,162,NaN,knife,knife,c50,7842_cop_dnn_c50_knife_10_n03041632_29827.png
cornet-s,7,163,NaN,oven,knife,c50,7843_cop_dnn_c50_knife_10_n03041632_13518.png
cornet-s,7,164,NaN,knife,knife,c50,7844_cop_dnn_c50_knife_10_n03041632_82878.png
cornet-s,7,165,NaN,knife,knife,c50,7845_cop_dnn_c50_knife_10_n03041632_24113.png
cornet-s,7,166,NaN,chair,knife,c50,7846_cop_dnn_c50_knife_10_n03041632_91582.png
cornet-s,7,167,NaN,chair,knife,c50,7847_cop_dnn_c50_knife_10_n03041632_51617.png
cornet-s,7,168,NaN,bottle,knife,c50,7848_cop_dnn_c50_knife_10_n03041632_96714.png
cornet-s,7,169,NaN,knife,knife,c50,7849_cop_dnn_c50_knife_10_n03041632_14801.png
cornet-s,7,170,NaN,knife,knife,c50,7850_cop_dnn_c50_knife_10_n03041632_50332.png
cornet-s,7,171,NaN,keyboard,keyboard,c50,7851_cop_dnn_c50_keyboard_10_n04505470_1724.png
cornet-s,7,172,NaN,keyboard,keyboard,c50,7852_cop_dnn_c50_keyboard_10_n04505470_5172.png
cornet-s,7,173,NaN,keyboard,keyboard,c50,7853_cop_dnn_c50_keyboard_10_n04505470_848.png
cornet-s,7,174,NaN,keyboard,keyboard,c50,7854_cop_dnn_c50_keyboard_10_n04505470_9741.png
cornet-s,7,175,NaN,keyboard,keyboard,c50,7855_cop_dnn_c50_keyboard_10_n03085013_24416.png
cornet-s,7,176,NaN,chair,keyboard,c50,7856_cop_dnn_c50_keyboard_10_n03085013_25875.png
cornet-s,7,177,NaN,keyboard,keyboard,c50,7857_cop_dnn_c50_keyboard_10_n03085013_20891.png
cornet-s,7,178,NaN,keyboard,keyboard,c50,7858_cop_dnn_c50_keyboard_10_n04505470_276.png
cornet-s,7,179,NaN,keyboard,keyboard,c50,7859_cop_dnn_c50_keyboard_10_n04505470_6638.png
cornet-s,7,180,NaN,keyboard,keyboard,c50,7860_cop_dnn_c50_keyboard_10_n04505470_6361.png
cornet-s,7,181,NaN,elephant,elephant,c50,7861_cop_dnn_c50_elephant_10_n02504458_2041.png
cornet-s,7,182,NaN,elephant,elephant,c50,7862_cop_dnn_c50_elephant_10_n02504458_9213.png
cornet-s,7,183,NaN,elephant,elephant,c50,7863_cop_dnn_c50_elephant_10_n02504013_3903.png
cornet-s,7,184,NaN,elephant,elephant,c50,7864_cop_dnn_c50_elephant_10_n02504013_2205.png
cornet-s,7,185,NaN,elephant,elephant,c50,7865_cop_dnn_c50_elephant_10_n02504013_6471.png
cornet-s,7,186,NaN,elephant,elephant,c50,7866_cop_dnn_c50_elephant_10_n02504013_5893.png
cornet-s,7,187,NaN,elephant,elephant,c50,7867_cop_dnn_c50_elephant_10_n02504013_6742.png
cornet-s,7,188,NaN,elephant,elephant,c50,7868_cop_dnn_c50_elephant_10_n02504458_5652.png
cornet-s,7,189,NaN,elephant,elephant,c50,7869_cop_dnn_c50_elephant_10_n02504013_10311.png
cornet-s,7,190,NaN,elephant,elephant,c50,7870_cop_dnn_c50_elephant_10_n02504013_1719.png
cornet-s,7,191,NaN,bicycle,bicycle,c50,7871_cop_dnn_c50_bicycle_10_n03792782_7745.png
cornet-s,7,192,NaN,bicycle,bicycle,c50,7872_cop_dnn_c50_bicycle_10_n03792782_4704.png
cornet-s,7,193,NaN,bicycle,bicycle,c50,7873_cop_dnn_c50_bicycle_10_n03792782_9699.png
cornet-s,7,194,NaN,bicycle,bicycle,c50,7874_cop_dnn_c50_bicycle_10_n03792782_471.png
cornet-s,7,195,NaN,bicycle,bicycle,c50,7875_cop_dnn_c50_bicycle_10_n03792782_14931.png
cornet-s,7,196,NaN,bicycle,bicycle,c50,7876_cop_dnn_c50_bicycle_10_n03792782_5133.png
cornet-s,7,197,NaN,bicycle,bicycle,c50,7877_cop_dnn_c50_bicycle_10_n03792782_16408.png
cornet-s,7,198,NaN,bicycle,bicycle,c50,7878_cop_dnn_c50_bicycle_10_n02835271_20104.png
cornet-s,7,199,NaN,bicycle,bicycle,c50,7879_cop_dnn_c50_bicycle_10_n03792782_4210.png
cornet-s,7,200,NaN,bicycle,bicycle,c50,7880_cop_dnn_c50_bicycle_10_n03792782_210.png
cornet-s,7,201,NaN,airplane,airplane,c50,7881_cop_dnn_c50_airplane_10_n02690373_4851.png
cornet-s,7,202,NaN,airplane,airplane,c50,7882_cop_dnn_c50_airplane_10_n02690373_1418.png
cornet-s,7,203,NaN,airplane,airplane,c50,7883_cop_dnn_c50_airplane_10_n02690373_5748.png
cornet-s,7,204,NaN,airplane,airplane,c50,7884_cop_dnn_c50_airplane_10_n02690373_4434.png
cornet-s,7,205,NaN,airplane,airplane,c50,7885_cop_dnn_c50_airplane_10_n02690373_8653.png
cornet-s,7,206,NaN,airplane,airplane,c50,7886_cop_dnn_c50_airplane_10_n02690373_757.png
cornet-s,7,207,NaN,airplane,airplane,c50,7887_cop_dnn_c50_airplane_10_n02690373_3613.png
cornet-s,7,208,NaN,airplane,airplane,c50,7888_cop_dnn_c50_airplane_10_n02690373_4943.png
cornet-s,7,209,NaN,airplane,airplane,c50,7889_cop_dnn_c50_airplane_10_n02690373_4507.png
cornet-s,7,210,NaN,airplane,airplane,c50,7890_cop_dnn_c50_airplane_10_n02690373_5662.png
cornet-s,7,211,NaN,chair,clock,c50,7891_cop_dnn_c50_clock_10_n03196217_5627.png
cornet-s,7,212,NaN,clock,clock,c50,7892_cop_dnn_c50_clock_10_n04548280_3080.png
cornet-s,7,213,NaN,clock,clock,c50,7893_cop_dnn_c50_clock_10_n02708093_906.png
cornet-s,7,214,NaN,clock,clock,c50,7894_cop_dnn_c50_clock_10_n03196217_421.png
cornet-s,7,215,NaN,bottle,clock,c50,7895_cop_dnn_c50_clock_10_n03196217_5120.png
cornet-s,7,216,NaN,clock,clock,c50,7896_cop_dnn_c50_clock_10_n03196217_4600.png
cornet-s,7,217,NaN,clock,clock,c50,7897_cop_dnn_c50_clock_10_n04548280_3394.png
cornet-s,7,218,NaN,clock,clock,c50,7898_cop_dnn_c50_clock_10_n04548280_8246.png
cornet-s,7,219,NaN,clock,clock,c50,7899_cop_dnn_c50_clock_10_n04548280_8646.png
cornet-s,7,220,NaN,clock,clock,c50,7900_cop_dnn_c50_clock_10_n04548280_4391.png
cornet-s,7,221,NaN,oven,oven,c50,7901_cop_dnn_c50_oven_10_n04111531_7728.png
cornet-s,7,222,NaN,oven,oven,c50,7902_cop_dnn_c50_oven_10_n04111531_21404.png
cornet-s,7,223,NaN,oven,oven,c50,7903_cop_dnn_c50_oven_10_n04111531_6955.png
cornet-s,7,224,NaN,oven,oven,c50,7904_cop_dnn_c50_oven_10_n04111531_81.png
cornet-s,7,225,NaN,bottle,oven,c50,7905_cop_dnn_c50_oven_10_n04111531_7355.png
cornet-s,7,226,NaN,oven,oven,c50,7906_cop_dnn_c50_oven_10_n04111531_9962.png
cornet-s,7,227,NaN,oven,oven,c50,7907_cop_dnn_c50_oven_10_n04111531_1662.png
cornet-s,7,228,NaN,oven,oven,c50,7908_cop_dnn_c50_oven_10_n04111531_10436.png
cornet-s,7,229,NaN,oven,oven,c50,7909_cop_dnn_c50_oven_10_n04111531_12952.png
cornet-s,7,230,NaN,chair,oven,c50,7910_cop_dnn_c50_oven_10_n04111531_1674.png
cornet-s,7,231,NaN,chair,chair,c50,7911_cop_dnn_c50_chair_10_n02791124_5401.png
cornet-s,7,232,NaN,chair,chair,c50,7912_cop_dnn_c50_chair_10_n03376595_9900.png
cornet-s,7,233,NaN,chair,chair,c50,7913_cop_dnn_c50_chair_10_n02791124_16010.png
cornet-s,7,234,NaN,chair,chair,c50,7914_cop_dnn_c50_chair_10_n02791124_3281.png
cornet-s,7,235,NaN,chair,chair,c50,7915_cop_dnn_c50_chair_10_n04099969_25613.png
cornet-s,7,236,NaN,chair,chair,c50,7916_cop_dnn_c50_chair_10_n04429376_7050.png
cornet-s,7,237,NaN,chair,chair,c50,7917_cop_dnn_c50_chair_10_n02791124_4566.png
cornet-s,7,238,NaN,chair,chair,c50,7918_cop_dnn_c50_chair_10_n04099969_6001.png
cornet-s,7,239,NaN,chair,chair,c50,7919_cop_dnn_c50_chair_10_n02791124_307.png
cornet-s,7,240,NaN,chair,chair,c50,7920_cop_dnn_c50_chair_10_n02791124_13570.png
cornet-s,7,241,NaN,bear,bear,c50,7921_cop_dnn_c50_bear_10_n02134084_6746.png
cornet-s,7,242,NaN,bear,bear,c50,7922_cop_dnn_c50_bear_10_n02134418_4908.png
cornet-s,7,243,NaN,bear,bear,c50,7923_cop_dnn_c50_bear_10_n02133161_5637.png
cornet-s,7,244,NaN,bear,bear,c50,7924_cop_dnn_c50_bear_10_n02134418_2545.png
cornet-s,7,245,NaN,bear,bear,c50,7925_cop_dnn_c50_bear_10_n02132136_23248.png
cornet-s,7,246,NaN,bear,bear,c50,7926_cop_dnn_c50_bear_10_n02134084_6702.png
cornet-s,7,247,NaN,bear,bear,c50,7927_cop_dnn_c50_bear_10_n02134418_4637.png
cornet-s,7,248,NaN,bear,bear,c50,7928_cop_dnn_c50_bear_10_n02134084_1207.png
cornet-s,7,249,NaN,bear,bear,c50,7929_cop_dnn_c50_bear_10_n02132136_360.png
cornet-s,7,250,NaN,bear,bear,c50,7930_cop_dnn_c50_bear_10_n02133161_2355.png
cornet-s,7,251,NaN,boat,boat,c50,7931_cop_dnn_c50_boat_10_n03344393_7330.png
cornet-s,7,252,NaN,boat,boat,c50,7932_cop_dnn_c50_boat_10_n02951358_35985.png
cornet-s,7,253,NaN,boat,boat,c50,7933_cop_dnn_c50_boat_10_n02951358_14069.png
cornet-s,7,254,NaN,boat,boat,c50,7934_cop_dnn_c50_boat_10_n03344393_9531.png
cornet-s,7,255,NaN,airplane,boat,c50,7935_cop_dnn_c50_boat_10_n03344393_6849.png
cornet-s,7,256,NaN,boat,boat,c50,7936_cop_dnn_c50_boat_10_n03344393_6727.png
cornet-s,7,257,NaN,boat,boat,c50,7937_cop_dnn_c50_boat_10_n04612504_17309.png
cornet-s,7,258,NaN,boat,boat,c50,7938_cop_dnn_c50_boat_10_n02951358_12081.png
cornet-s,7,259,NaN,boat,boat,c50,7939_cop_dnn_c50_boat_10_n03344393_9929.png
cornet-s,7,260,NaN,boat,boat,c50,7940_cop_dnn_c50_boat_10_n03662601_21918.png
cornet-s,7,261,NaN,cat,cat,c50,7941_cop_dnn_c50_cat_10_n02123159_6052.png
cornet-s,7,262,NaN,cat,cat,c50,7942_cop_dnn_c50_cat_10_n02123394_6296.png
cornet-s,7,263,NaN,cat,cat,c50,7943_cop_dnn_c50_cat_10_n02123045_2330.png
cornet-s,7,264,NaN,cat,cat,c50,7944_cop_dnn_c50_cat_10_n02124075_5224.png
cornet-s,7,265,NaN,cat,cat,c50,7945_cop_dnn_c50_cat_10_n02123159_7181.png
cornet-s,7,266,NaN,cat,cat,c50,7946_cop_dnn_c50_cat_10_n02123045_689.png
cornet-s,7,267,NaN,cat,cat,c50,7947_cop_dnn_c50_cat_10_n02123597_4537.png
cornet-s,7,268,NaN,cat,cat,c50,7948_cop_dnn_c50_cat_10_n02123045_9465.png
cornet-s,7,269,NaN,cat,cat,c50,7949_cop_dnn_c50_cat_10_n02123394_2787.png
cornet-s,7,270,NaN,cat,cat,c50,7950_cop_dnn_c50_cat_10_n02125311_9555.png
cornet-s,7,271,NaN,bottle,bottle,c50,7951_cop_dnn_c50_bottle_10_n02823428_1045.png
cornet-s,7,272,NaN,bottle,bottle,c50,7952_cop_dnn_c50_bottle_10_n03983396_10881.png
cornet-s,7,273,NaN,bottle,bottle,c50,7953_cop_dnn_c50_bottle_10_n03983396_5284.png
cornet-s,7,274,NaN,chair,bottle,c50,7954_cop_dnn_c50_bottle_10_n04560804_156.png
cornet-s,7,275,NaN,bottle,bottle,c50,7955_cop_dnn_c50_bottle_10_n03983396_12307.png
cornet-s,7,276,NaN,bottle,bottle,c50,7956_cop_dnn_c50_bottle_10_n04560804_28861.png
cornet-s,7,277,NaN,bottle,bottle,c50,7957_cop_dnn_c50_bottle_10_n04591713_2058.png
cornet-s,7,278,NaN,bottle,bottle,c50,7958_cop_dnn_c50_bottle_10_n03983396_278.png
cornet-s,7,279,NaN,bottle,bottle,c50,7959_cop_dnn_c50_bottle_10_n04560804_15492.png
cornet-s,7,280,NaN,knife,bottle,c50,7960_cop_dnn_c50_bottle_10_n04591713_11370.png
cornet-s,7,281,NaN,truck,truck,c50,7961_cop_dnn_c50_truck_10_n04467665_44850.png
cornet-s,7,282,NaN,truck,truck,c50,7962_cop_dnn_c50_truck_10_n04467665_71074.png
cornet-s,7,283,NaN,truck,truck,c50,7963_cop_dnn_c50_truck_10_n03417042_1262.png
cornet-s,7,284,NaN,truck,truck,c50,7964_cop_dnn_c50_truck_10_n03796401_21490.png
cornet-s,7,285,NaN,truck,truck,c50,7965_cop_dnn_c50_truck_10_n04467665_65113.png
cornet-s,7,286,NaN,truck,truck,c50,7966_cop_dnn_c50_truck_10_n04467665_71248.png
cornet-s,7,287,NaN,truck,truck,c50,7967_cop_dnn_c50_truck_10_n04467665_68923.png
cornet-s,7,288,NaN,truck,truck,c50,7968_cop_dnn_c50_truck_10_n04467665_34440.png
cornet-s,7,289,NaN,truck,truck,c50,7969_cop_dnn_c50_truck_10_n03417042_26782.png
cornet-s,7,290,NaN,truck,truck,c50,7970_cop_dnn_c50_truck_10_n03796401_6503.png
cornet-s,7,291,NaN,car,car,c50,7971_cop_dnn_c50_car_10_n02814533_52866.png
cornet-s,7,292,NaN,car,car,c50,7972_cop_dnn_c50_car_10_n03100240_10215.png
cornet-s,7,293,NaN,car,car,c50,7973_cop_dnn_c50_car_10_n04285008_2363.png
cornet-s,7,294,NaN,car,car,c50,7974_cop_dnn_c50_car_10_n04285008_3922.png
cornet-s,7,295,NaN,car,car,c50,7975_cop_dnn_c50_car_10_n02814533_38295.png
cornet-s,7,296,NaN,car,car,c50,7976_cop_dnn_c50_car_10_n04285008_12189.png
cornet-s,7,297,NaN,car,car,c50,7977_cop_dnn_c50_car_10_n02814533_55326.png
cornet-s,7,298,NaN,car,car,c50,7978_cop_dnn_c50_car_10_n02814533_93338.png
cornet-s,7,299,NaN,car,car,c50,7979_cop_dnn_c50_car_10_n04285008_1785.png
cornet-s,7,300,NaN,car,car,c50,7980_cop_dnn_c50_car_10_n04285008_11186.png
cornet-s,7,301,NaN,bird,bird,c50,7981_cop_dnn_c50_bird_10_n02009229_7497.png
cornet-s,7,302,NaN,bird,bird,c50,7982_cop_dnn_c50_bird_10_n02033041_2722.png
cornet-s,7,303,NaN,bird,bird,c50,7983_cop_dnn_c50_bird_10_n02033041_6041.png
cornet-s,7,304,NaN,bird,bird,c50,7984_cop_dnn_c50_bird_10_n01828970_5397.png
cornet-s,7,305,NaN,bird,bird,c50,7985_cop_dnn_c50_bird_10_n02051845_17122.png
cornet-s,7,306,NaN,bird,bird,c50,7986_cop_dnn_c50_bird_10_n01828970_7955.png
cornet-s,7,307,NaN,bird,bird,c50,7987_cop_dnn_c50_bird_10_n01530575_9762.png
cornet-s,7,308,NaN,bird,bird,c50,7988_cop_dnn_c50_bird_10_n01833805_22540.png
cornet-s,7,309,NaN,bird,bird,c50,7989_cop_dnn_c50_bird_10_n01860187_263.png
cornet-s,7,310,NaN,bird,bird,c50,7990_cop_dnn_c50_bird_10_n01537544_851.png
cornet-s,7,311,NaN,dog,dog,c50,7991_cop_dnn_c50_dog_10_n02091032_4641.png
cornet-s,7,312,NaN,dog,dog,c50,7992_cop_dnn_c50_dog_10_n02106550_5222.png
cornet-s,7,313,NaN,dog,dog,c50,7993_cop_dnn_c50_dog_10_n02107908_6214.png
cornet-s,7,314,NaN,dog,dog,c50,7994_cop_dnn_c50_dog_10_n02100877_4764.png
cornet-s,7,315,NaN,dog,dog,c50,7995_cop_dnn_c50_dog_10_n02097130_10741.png
cornet-s,7,316,NaN,dog,dog,c50,7996_cop_dnn_c50_dog_10_n02100735_8203.png
cornet-s,7,317,NaN,dog,dog,c50,7997_cop_dnn_c50_dog_10_n02102177_4523.png
cornet-s,7,318,NaN,dog,dog,c50,7998_cop_dnn_c50_dog_10_n02095889_974.png
cornet-s,7,319,NaN,dog,dog,c50,7999_cop_dnn_c50_dog_10_n02113023_6546.png
cornet-s,7,320,NaN,dog,dog,c50,8000_cop_dnn_c50_dog_10_n02109525_58699.png
cornet-s,7,321,NaN,knife,knife,c30,8001_cop_dnn_c30_knife_10_n03041632_1884.png
cornet-s,7,322,NaN,knife,knife,c30,8002_cop_dnn_c30_knife_10_n03041632_20662.png
cornet-s,7,323,NaN,knife,knife,c30,8003_cop_dnn_c30_knife_10_n03041632_927.png
cornet-s,7,324,NaN,knife,knife,c30,8004_cop_dnn_c30_knife_10_n03041632_4590.png
cornet-s,7,325,NaN,knife,knife,c30,8005_cop_dnn_c30_knife_10_n03041632_23736.png
cornet-s,7,326,NaN,knife,knife,c30,8006_cop_dnn_c30_knife_10_n03041632_55140.png
cornet-s,7,327,NaN,knife,knife,c30,8007_cop_dnn_c30_knife_10_n03041632_42162.png
cornet-s,7,328,NaN,knife,knife,c30,8008_cop_dnn_c30_knife_10_n03041632_31301.png
cornet-s,7,329,NaN,bottle,knife,c30,8009_cop_dnn_c30_knife_10_n03041632_4214.png
cornet-s,7,330,NaN,knife,knife,c30,8010_cop_dnn_c30_knife_10_n03041632_11475.png
cornet-s,7,331,NaN,keyboard,keyboard,c30,8011_cop_dnn_c30_keyboard_10_n04505470_4878.png
cornet-s,7,332,NaN,keyboard,keyboard,c30,8012_cop_dnn_c30_keyboard_10_n04505470_4902.png
cornet-s,7,333,NaN,keyboard,keyboard,c30,8013_cop_dnn_c30_keyboard_10_n04505470_3981.png
cornet-s,7,334,NaN,keyboard,keyboard,c30,8014_cop_dnn_c30_keyboard_10_n03085013_10659.png
cornet-s,7,335,NaN,keyboard,keyboard,c30,8015_cop_dnn_c30_keyboard_10_n04505470_5098.png
cornet-s,7,336,NaN,keyboard,keyboard,c30,8016_cop_dnn_c30_keyboard_10_n04505470_284.png
cornet-s,7,337,NaN,keyboard,keyboard,c30,8017_cop_dnn_c30_keyboard_10_n04505470_3122.png
cornet-s,7,338,NaN,keyboard,keyboard,c30,8018_cop_dnn_c30_keyboard_10_n04505470_6379.png
cornet-s,7,339,NaN,keyboard,keyboard,c30,8019_cop_dnn_c30_keyboard_10_n04505470_5561.png
cornet-s,7,340,NaN,keyboard,keyboard,c30,8020_cop_dnn_c30_keyboard_10_n04505470_4994.png
cornet-s,7,341,NaN,elephant,elephant,c30,8021_cop_dnn_c30_elephant_10_n02504013_5829.png
cornet-s,7,342,NaN,elephant,elephant,c30,8022_cop_dnn_c30_elephant_10_n02504013_2125.png
cornet-s,7,343,NaN,elephant,elephant,c30,8023_cop_dnn_c30_elephant_10_n02504458_1563.png
cornet-s,7,344,NaN,elephant,elephant,c30,8024_cop_dnn_c30_elephant_10_n02504013_3282.png
cornet-s,7,345,NaN,elephant,elephant,c30,8025_cop_dnn_c30_elephant_10_n02504013_9881.png
cornet-s,7,346,NaN,elephant,elephant,c30,8026_cop_dnn_c30_elephant_10_n02504458_1137.png
cornet-s,7,347,NaN,elephant,elephant,c30,8027_cop_dnn_c30_elephant_10_n02504013_2770.png
cornet-s,7,348,NaN,elephant,elephant,c30,8028_cop_dnn_c30_elephant_10_n02504013_13422.png
cornet-s,7,349,NaN,elephant,elephant,c30,8029_cop_dnn_c30_elephant_10_n02504013_846.png
cornet-s,7,350,NaN,elephant,elephant,c30,8030_cop_dnn_c30_elephant_10_n02504458_6025.png
cornet-s,7,351,NaN,bicycle,bicycle,c30,8031_cop_dnn_c30_bicycle_10_n03792782_7802.png
cornet-s,7,352,NaN,bicycle,bicycle,c30,8032_cop_dnn_c30_bicycle_10_n02835271_8212.png
cornet-s,7,353,NaN,bicycle,bicycle,c30,8033_cop_dnn_c30_bicycle_10_n03792782_17324.png
cornet-s,7,354,NaN,bicycle,bicycle,c30,8034_cop_dnn_c30_bicycle_10_n03792782_6102.png
cornet-s,7,355,NaN,bicycle,bicycle,c30,8035_cop_dnn_c30_bicycle_10_n02835271_7976.png
cornet-s,7,356,NaN,bicycle,bicycle,c30,8036_cop_dnn_c30_bicycle_10_n03792782_52581.png
cornet-s,7,357,NaN,bicycle,bicycle,c30,8037_cop_dnn_c30_bicycle_10_n03792782_975.png
cornet-s,7,358,NaN,bicycle,bicycle,c30,8038_cop_dnn_c30_bicycle_10_n03792782_38365.png
cornet-s,7,359,NaN,bicycle,bicycle,c30,8039_cop_dnn_c30_bicycle_10_n03792782_6413.png
cornet-s,7,360,NaN,bicycle,bicycle,c30,8040_cop_dnn_c30_bicycle_10_n03792782_3296.png
cornet-s,7,361,NaN,airplane,airplane,c30,8041_cop_dnn_c30_airplane_10_n02690373_7239.png
cornet-s,7,362,NaN,airplane,airplane,c30,8042_cop_dnn_c30_airplane_10_n02690373_349.png
cornet-s,7,363,NaN,airplane,airplane,c30,8043_cop_dnn_c30_airplane_10_n02690373_5870.png
cornet-s,7,364,NaN,airplane,airplane,c30,8044_cop_dnn_c30_airplane_10_n02690373_18845.png
cornet-s,7,365,NaN,airplane,airplane,c30,8045_cop_dnn_c30_airplane_10_n02690373_5869.png
cornet-s,7,366,NaN,airplane,airplane,c30,8046_cop_dnn_c30_airplane_10_n02690373_7624.png
cornet-s,7,367,NaN,airplane,airplane,c30,8047_cop_dnn_c30_airplane_10_n02690373_4552.png
cornet-s,7,368,NaN,airplane,airplane,c30,8048_cop_dnn_c30_airplane_10_n02690373_5344.png
cornet-s,7,369,NaN,airplane,airplane,c30,8049_cop_dnn_c30_airplane_10_n02690373_7487.png
cornet-s,7,370,NaN,airplane,airplane,c30,8050_cop_dnn_c30_airplane_10_n02690373_6978.png
cornet-s,7,371,NaN,clock,clock,c30,8051_cop_dnn_c30_clock_10_n04548280_5527.png
cornet-s,7,372,NaN,chair,clock,c30,8052_cop_dnn_c30_clock_10_n04548280_8883.png
cornet-s,7,373,NaN,clock,clock,c30,8053_cop_dnn_c30_clock_10_n02708093_5728.png
cornet-s,7,374,NaN,clock,clock,c30,8054_cop_dnn_c30_clock_10_n02708093_3146.png
cornet-s,7,375,NaN,chair,clock,c30,8055_cop_dnn_c30_clock_10_n04548280_1032.png
cornet-s,7,376,NaN,knife,clock,c30,8056_cop_dnn_c30_clock_10_n04548280_821.png
cornet-s,7,377,NaN,clock,clock,c30,8057_cop_dnn_c30_clock_10_n02708093_993.png
cornet-s,7,378,NaN,keyboard,clock,c30,8058_cop_dnn_c30_clock_10_n03196217_1021.png
cornet-s,7,379,NaN,clock,clock,c30,8059_cop_dnn_c30_clock_10_n03196217_7012.png
cornet-s,7,380,NaN,clock,clock,c30,8060_cop_dnn_c30_clock_10_n04548280_1202.png
cornet-s,7,381,NaN,keyboard,oven,c30,8061_cop_dnn_c30_oven_10_n04111531_9178.png
cornet-s,7,382,NaN,oven,oven,c30,8062_cop_dnn_c30_oven_10_n04111531_15683.png
cornet-s,7,383,NaN,oven,oven,c30,8063_cop_dnn_c30_oven_10_n04111531_7329.png
cornet-s,7,384,NaN,chair,oven,c30,8064_cop_dnn_c30_oven_10_n04111531_15616.png
cornet-s,7,385,NaN,oven,oven,c30,8065_cop_dnn_c30_oven_10_n04111531_2023.png
cornet-s,7,386,NaN,chair,oven,c30,8066_cop_dnn_c30_oven_10_n04111531_10419.png
cornet-s,7,387,NaN,oven,oven,c30,8067_cop_dnn_c30_oven_10_n04111531_17922.png
cornet-s,7,388,NaN,oven,oven,c30,8068_cop_dnn_c30_oven_10_n04111531_4795.png
cornet-s,7,389,NaN,oven,oven,c30,8069_cop_dnn_c30_oven_10_n04111531_5888.png
cornet-s,7,390,NaN,knife,oven,c30,8070_cop_dnn_c30_oven_10_n04111531_22138.png
cornet-s,7,391,NaN,chair,chair,c30,8071_cop_dnn_c30_chair_10_n03376595_3222.png
cornet-s,7,392,NaN,chair,chair,c30,8072_cop_dnn_c30_chair_10_n02791124_9736.png
cornet-s,7,393,NaN,airplane,chair,c30,8073_cop_dnn_c30_chair_10_n03376595_584.png
cornet-s,7,394,NaN,chair,chair,c30,8074_cop_dnn_c30_chair_10_n03376595_774.png
cornet-s,7,395,NaN,chair,chair,c30,8075_cop_dnn_c30_chair_10_n04099969_8604.png
cornet-s,7,396,NaN,chair,chair,c30,8076_cop_dnn_c30_chair_10_n04099969_2233.png
cornet-s,7,397,NaN,chair,chair,c30,8077_cop_dnn_c30_chair_10_n02791124_1390.png
cornet-s,7,398,NaN,chair,chair,c30,8078_cop_dnn_c30_chair_10_n02791124_3184.png
cornet-s,7,399,NaN,chair,chair,c30,8079_cop_dnn_c30_chair_10_n02791124_8323.png
cornet-s,7,400,NaN,chair,chair,c30,8080_cop_dnn_c30_chair_10_n02791124_2861.png
cornet-s,7,401,NaN,elephant,bear,c30,8081_cop_dnn_c30_bear_10_n02132136_8896.png
cornet-s,7,402,NaN,bear,bear,c30,8082_cop_dnn_c30_bear_10_n02132136_20680.png
cornet-s,7,403,NaN,bear,bear,c30,8083_cop_dnn_c30_bear_10_n02133161_548.png
cornet-s,7,404,NaN,bear,bear,c30,8084_cop_dnn_c30_bear_10_n02134084_4433.png
cornet-s,7,405,NaN,bear,bear,c30,8085_cop_dnn_c30_bear_10_n02132136_14625.png
cornet-s,7,406,NaN,bear,bear,c30,8086_cop_dnn_c30_bear_10_n02132136_786.png
cornet-s,7,407,NaN,boat,bear,c30,8087_cop_dnn_c30_bear_10_n02133161_4916.png
cornet-s,7,408,NaN,bear,bear,c30,8088_cop_dnn_c30_bear_10_n02133161_989.png
cornet-s,7,409,NaN,bear,bear,c30,8089_cop_dnn_c30_bear_10_n02132136_20009.png
cornet-s,7,410,NaN,bear,bear,c30,8090_cop_dnn_c30_bear_10_n02134084_8153.png
cornet-s,7,411,NaN,boat,boat,c30,8091_cop_dnn_c30_boat_10_n03662601_18611.png
cornet-s,7,412,NaN,boat,boat,c30,8092_cop_dnn_c30_boat_10_n03662601_6729.png
cornet-s,7,413,NaN,boat,boat,c30,8093_cop_dnn_c30_boat_10_n03344393_2434.png
cornet-s,7,414,NaN,boat,boat,c30,8094_cop_dnn_c30_boat_10_n04273569_9452.png
cornet-s,7,415,NaN,boat,boat,c30,8095_cop_dnn_c30_boat_10_n04612504_37043.png
cornet-s,7,416,NaN,boat,boat,c30,8096_cop_dnn_c30_boat_10_n02951358_3780.png
cornet-s,7,417,NaN,boat,boat,c30,8097_cop_dnn_c30_boat_10_n04273569_51.png
cornet-s,7,418,NaN,boat,boat,c30,8098_cop_dnn_c30_boat_10_n03344393_726.png
cornet-s,7,419,NaN,boat,boat,c30,8099_cop_dnn_c30_boat_10_n04273569_13592.png
cornet-s,7,420,NaN,boat,boat,c30,8100_cop_dnn_c30_boat_10_n03662601_2577.png
cornet-s,7,421,NaN,cat,cat,c30,8101_cop_dnn_c30_cat_10_n02125311_22060.png
cornet-s,7,422,NaN,cat,cat,c30,8102_cop_dnn_c30_cat_10_n02123597_2020.png
cornet-s,7,423,NaN,cat,cat,c30,8103_cop_dnn_c30_cat_10_n02123394_932.png
cornet-s,7,424,NaN,cat,cat,c30,8104_cop_dnn_c30_cat_10_n02123045_9467.png
cornet-s,7,425,NaN,cat,cat,c30,8105_cop_dnn_c30_cat_10_n02123597_12651.png
cornet-s,7,426,NaN,cat,cat,c30,8106_cop_dnn_c30_cat_10_n02124075_12316.png
cornet-s,7,427,NaN,cat,cat,c30,8107_cop_dnn_c30_cat_10_n02123394_1109.png
cornet-s,7,428,NaN,chair,cat,c30,8108_cop_dnn_c30_cat_10_n02123394_578.png
cornet-s,7,429,NaN,cat,cat,c30,8109_cop_dnn_c30_cat_10_n02123597_5493.png
cornet-s,7,430,NaN,cat,cat,c30,8110_cop_dnn_c30_cat_10_n02123159_73.png
cornet-s,7,431,NaN,bottle,bottle,c30,8111_cop_dnn_c30_bottle_10_n03983396_21188.png
cornet-s,7,432,NaN,bottle,bottle,c30,8112_cop_dnn_c30_bottle_10_n04557648_2575.png
cornet-s,7,433,NaN,bottle,bottle,c30,8113_cop_dnn_c30_bottle_10_n04560804_1860.png
cornet-s,7,434,NaN,bottle,bottle,c30,8114_cop_dnn_c30_bottle_10_n04591713_1172.png
cornet-s,7,435,NaN,bottle,bottle,c30,8115_cop_dnn_c30_bottle_10_n04557648_8985.png
cornet-s,7,436,NaN,bottle,bottle,c30,8116_cop_dnn_c30_bottle_10_n04579145_934.png
cornet-s,7,437,NaN,bottle,bottle,c30,8117_cop_dnn_c30_bottle_10_n03937543_1531.png
cornet-s,7,438,NaN,bottle,bottle,c30,8118_cop_dnn_c30_bottle_10_n03937543_1391.png
cornet-s,7,439,NaN,bottle,bottle,c30,8119_cop_dnn_c30_bottle_10_n04591713_4971.png
cornet-s,7,440,NaN,bottle,bottle,c30,8120_cop_dnn_c30_bottle_10_n03983396_10380.png
cornet-s,7,441,NaN,truck,truck,c30,8121_cop_dnn_c30_truck_10_n03417042_9552.png
cornet-s,7,442,NaN,truck,truck,c30,8122_cop_dnn_c30_truck_10_n04467665_4401.png
cornet-s,7,443,NaN,truck,truck,c30,8123_cop_dnn_c30_truck_10_n04467665_57.png
cornet-s,7,444,NaN,truck,truck,c30,8124_cop_dnn_c30_truck_10_n03417042_3350.png
cornet-s,7,445,NaN,truck,truck,c30,8125_cop_dnn_c30_truck_10_n04467665_52418.png
cornet-s,7,446,NaN,truck,truck,c30,8126_cop_dnn_c30_truck_10_n03796401_755.png
cornet-s,7,447,NaN,truck,truck,c30,8127_cop_dnn_c30_truck_10_n03417042_94.png
cornet-s,7,448,NaN,truck,truck,c30,8128_cop_dnn_c30_truck_10_n03417042_27613.png
cornet-s,7,449,NaN,truck,truck,c30,8129_cop_dnn_c30_truck_10_n03796401_27106.png
cornet-s,7,450,NaN,truck,truck,c30,8130_cop_dnn_c30_truck_10_n04467665_30581.png
cornet-s,7,451,NaN,car,car,c30,8131_cop_dnn_c30_car_10_n04285008_9588.png
cornet-s,7,452,NaN,car,car,c30,8132_cop_dnn_c30_car_10_n02814533_8881.png
cornet-s,7,453,NaN,car,car,c30,8133_cop_dnn_c30_car_10_n02814533_12048.png
cornet-s,7,454,NaN,car,car,c30,8134_cop_dnn_c30_car_10_n04285008_3863.png
cornet-s,7,455,NaN,keyboard,car,c30,8135_cop_dnn_c30_car_10_n04285008_2685.png
cornet-s,7,456,NaN,car,car,c30,8136_cop_dnn_c30_car_10_n04285008_13055.png
cornet-s,7,457,NaN,car,car,c30,8137_cop_dnn_c30_car_10_n04285008_7566.png
cornet-s,7,458,NaN,truck,car,c30,8138_cop_dnn_c30_car_10_n02814533_69279.png
cornet-s,7,459,NaN,car,car,c30,8139_cop_dnn_c30_car_10_n04285008_4893.png
cornet-s,7,460,NaN,car,car,c30,8140_cop_dnn_c30_car_10_n02814533_39667.png
cornet-s,7,461,NaN,bird,bird,c30,8141_cop_dnn_c30_bird_10_n02006656_192.png
cornet-s,7,462,NaN,bird,bird,c30,8142_cop_dnn_c30_bird_10_n02002556_3597.png
cornet-s,7,463,NaN,bird,bird,c30,8143_cop_dnn_c30_bird_10_n01531178_27005.png
cornet-s,7,464,NaN,bottle,bird,c30,8144_cop_dnn_c30_bird_10_n01855672_9711.png
cornet-s,7,465,NaN,bird,bird,c30,8145_cop_dnn_c30_bird_10_n01537544_2851.png
cornet-s,7,466,NaN,bird,bird,c30,8146_cop_dnn_c30_bird_10_n01560419_1909.png
cornet-s,7,467,NaN,bird,bird,c30,8147_cop_dnn_c30_bird_10_n01601694_21866.png
cornet-s,7,468,NaN,bird,bird,c30,8148_cop_dnn_c30_bird_10_n01833805_13001.png
cornet-s,7,469,NaN,bird,bird,c30,8149_cop_dnn_c30_bird_10_n01819313_5819.png
cornet-s,7,470,NaN,bird,bird,c30,8150_cop_dnn_c30_bird_10_n01530575_38882.png
cornet-s,7,471,NaN,dog,dog,c30,8151_cop_dnn_c30_dog_10_n02094433_9506.png
cornet-s,7,472,NaN,dog,dog,c30,8152_cop_dnn_c30_dog_10_n02108915_5523.png
cornet-s,7,473,NaN,bear,dog,c30,8153_cop_dnn_c30_dog_10_n02110185_12761.png
cornet-s,7,474,NaN,dog,dog,c30,8154_cop_dnn_c30_dog_10_n02098105_1569.png
cornet-s,7,475,NaN,dog,dog,c30,8155_cop_dnn_c30_dog_10_n02111277_1881.png
cornet-s,7,476,NaN,elephant,dog,c30,8156_cop_dnn_c30_dog_10_n02089867_8964.png
cornet-s,7,477,NaN,dog,dog,c30,8157_cop_dnn_c30_dog_10_n02085782_14135.png
cornet-s,7,478,NaN,dog,dog,c30,8158_cop_dnn_c30_dog_10_n02106662_1655.png
cornet-s,7,479,NaN,cat,dog,c30,8159_cop_dnn_c30_dog_10_n02112018_13286.png
cornet-s,7,480,NaN,dog,dog,c30,8160_cop_dnn_c30_dog_10_n02113023_11847.png
cornet-s,7,481,NaN,airplane,knife,c15,8161_cop_dnn_c15_knife_10_n03041632_4975.png
cornet-s,7,482,NaN,chair,knife,c15,8162_cop_dnn_c15_knife_10_n03041632_8528.png
cornet-s,7,483,NaN,knife,knife,c15,8163_cop_dnn_c15_knife_10_n03041632_18236.png
cornet-s,7,484,NaN,chair,knife,c15,8164_cop_dnn_c15_knife_10_n03041632_99460.png
cornet-s,7,485,NaN,knife,knife,c15,8165_cop_dnn_c15_knife_10_n03041632_2386.png
cornet-s,7,486,NaN,knife,knife,c15,8166_cop_dnn_c15_knife_10_n03041632_37513.png
cornet-s,7,487,NaN,knife,knife,c15,8167_cop_dnn_c15_knife_10_n03041632_27960.png
cornet-s,7,488,NaN,knife,knife,c15,8168_cop_dnn_c15_knife_10_n03041632_15250.png
cornet-s,7,489,NaN,chair,knife,c15,8169_cop_dnn_c15_knife_10_n03041632_1006.png
cornet-s,7,490,NaN,knife,knife,c15,8170_cop_dnn_c15_knife_10_n03041632_3171.png
cornet-s,7,491,NaN,keyboard,keyboard,c15,8171_cop_dnn_c15_keyboard_10_n03085013_22351.png
cornet-s,7,492,NaN,keyboard,keyboard,c15,8172_cop_dnn_c15_keyboard_10_n04505470_9866.png
cornet-s,7,493,NaN,keyboard,keyboard,c15,8173_cop_dnn_c15_keyboard_10_n03085013_24410.png
cornet-s,7,494,NaN,chair,keyboard,c15,8174_cop_dnn_c15_keyboard_10_n03085013_6834.png
cornet-s,7,495,NaN,keyboard,keyboard,c15,8175_cop_dnn_c15_keyboard_10_n04505470_4566.png
cornet-s,7,496,NaN,clock,keyboard,c15,8176_cop_dnn_c15_keyboard_10_n04505470_4611.png
cornet-s,7,497,NaN,keyboard,keyboard,c15,8177_cop_dnn_c15_keyboard_10_n04505470_912.png
cornet-s,7,498,NaN,keyboard,keyboard,c15,8178_cop_dnn_c15_keyboard_10_n03085013_28741.png
cornet-s,7,499,NaN,keyboard,keyboard,c15,8179_cop_dnn_c15_keyboard_10_n04505470_4411.png
cornet-s,7,500,NaN,keyboard,keyboard,c15,8180_cop_dnn_c15_keyboard_10_n03085013_13083.png
cornet-s,7,501,NaN,elephant,elephant,c15,8181_cop_dnn_c15_elephant_10_n02504013_6780.png
cornet-s,7,502,NaN,elephant,elephant,c15,8182_cop_dnn_c15_elephant_10_n02504013_10588.png
cornet-s,7,503,NaN,elephant,elephant,c15,8183_cop_dnn_c15_elephant_10_n02504458_5181.png
cornet-s,7,504,NaN,elephant,elephant,c15,8184_cop_dnn_c15_elephant_10_n02504013_10192.png
cornet-s,7,505,NaN,elephant,elephant,c15,8185_cop_dnn_c15_elephant_10_n02504013_15825.png
cornet-s,7,506,NaN,elephant,elephant,c15,8186_cop_dnn_c15_elephant_10_n02504458_3147.png
cornet-s,7,507,NaN,elephant,elephant,c15,8187_cop_dnn_c15_elephant_10_n02504013_6275.png
cornet-s,7,508,NaN,elephant,elephant,c15,8188_cop_dnn_c15_elephant_10_n02504458_4374.png
cornet-s,7,509,NaN,elephant,elephant,c15,8189_cop_dnn_c15_elephant_10_n02504013_411.png
cornet-s,7,510,NaN,elephant,elephant,c15,8190_cop_dnn_c15_elephant_10_n02504458_4121.png
cornet-s,7,511,NaN,bicycle,bicycle,c15,8191_cop_dnn_c15_bicycle_10_n03792782_5421.png
cornet-s,7,512,NaN,bicycle,bicycle,c15,8192_cop_dnn_c15_bicycle_10_n02835271_11573.png
cornet-s,7,513,NaN,bicycle,bicycle,c15,8193_cop_dnn_c15_bicycle_10_n03792782_2435.png
cornet-s,7,514,NaN,bicycle,bicycle,c15,8194_cop_dnn_c15_bicycle_10_n02835271_14670.png
cornet-s,7,515,NaN,bicycle,bicycle,c15,8195_cop_dnn_c15_bicycle_10_n03792782_9786.png
cornet-s,7,516,NaN,bicycle,bicycle,c15,8196_cop_dnn_c15_bicycle_10_n02835271_1381.png
cornet-s,7,517,NaN,bicycle,bicycle,c15,8197_cop_dnn_c15_bicycle_10_n03792782_1851.png
cornet-s,7,518,NaN,chair,bicycle,c15,8198_cop_dnn_c15_bicycle_10_n02835271_9116.png
cornet-s,7,519,NaN,bicycle,bicycle,c15,8199_cop_dnn_c15_bicycle_10_n02835271_1199.png
cornet-s,7,520,NaN,bicycle,bicycle,c15,8200_cop_dnn_c15_bicycle_10_n02835271_15960.png
cornet-s,7,521,NaN,airplane,airplane,c15,8201_cop_dnn_c15_airplane_10_n02690373_6618.png
cornet-s,7,522,NaN,airplane,airplane,c15,8202_cop_dnn_c15_airplane_10_n02690373_10207.png
cornet-s,7,523,NaN,airplane,airplane,c15,8203_cop_dnn_c15_airplane_10_n02690373_5374.png
cornet-s,7,524,NaN,airplane,airplane,c15,8204_cop_dnn_c15_airplane_10_n02690373_7465.png
cornet-s,7,525,NaN,airplane,airplane,c15,8205_cop_dnn_c15_airplane_10_n02690373_787.png
cornet-s,7,526,NaN,airplane,airplane,c15,8206_cop_dnn_c15_airplane_10_n02690373_4375.png
cornet-s,7,527,NaN,airplane,airplane,c15,8207_cop_dnn_c15_airplane_10_n02690373_6755.png
cornet-s,7,528,NaN,airplane,airplane,c15,8208_cop_dnn_c15_airplane_10_n02690373_8592.png
cornet-s,7,529,NaN,airplane,airplane,c15,8209_cop_dnn_c15_airplane_10_n02690373_9001.png
cornet-s,7,530,NaN,airplane,airplane,c15,8210_cop_dnn_c15_airplane_10_n02690373_9445.png
cornet-s,7,531,NaN,clock,clock,c15,8211_cop_dnn_c15_clock_10_n04548280_2506.png
cornet-s,7,532,NaN,clock,clock,c15,8212_cop_dnn_c15_clock_10_n03196217_1244.png
cornet-s,7,533,NaN,clock,clock,c15,8213_cop_dnn_c15_clock_10_n04548280_4113.png
cornet-s,7,534,NaN,clock,clock,c15,8214_cop_dnn_c15_clock_10_n04548280_9125.png
cornet-s,7,535,NaN,knife,clock,c15,8215_cop_dnn_c15_clock_10_n04548280_3677.png
cornet-s,7,536,NaN,clock,clock,c15,8216_cop_dnn_c15_clock_10_n02708093_6890.png
cornet-s,7,537,NaN,clock,clock,c15,8217_cop_dnn_c15_clock_10_n04548280_6388.png
cornet-s,7,538,NaN,clock,clock,c15,8218_cop_dnn_c15_clock_10_n04548280_1425.png
cornet-s,7,539,NaN,clock,clock,c15,8219_cop_dnn_c15_clock_10_n03196217_998.png
cornet-s,7,540,NaN,clock,clock,c15,8220_cop_dnn_c15_clock_10_n04548280_7565.png
cornet-s,7,541,NaN,chair,oven,c15,8221_cop_dnn_c15_oven_10_n04111531_25647.png
cornet-s,7,542,NaN,clock,oven,c15,8222_cop_dnn_c15_oven_10_n04111531_11279.png
cornet-s,7,543,NaN,chair,oven,c15,8223_cop_dnn_c15_oven_10_n04111531_9910.png
cornet-s,7,544,NaN,knife,oven,c15,8224_cop_dnn_c15_oven_10_n04111531_9370.png
cornet-s,7,545,NaN,oven,oven,c15,8225_cop_dnn_c15_oven_10_n04111531_6899.png
cornet-s,7,546,NaN,knife,oven,c15,8226_cop_dnn_c15_oven_10_n04111531_1992.png
cornet-s,7,547,NaN,oven,oven,c15,8227_cop_dnn_c15_oven_10_n04111531_5737.png
cornet-s,7,548,NaN,keyboard,oven,c15,8228_cop_dnn_c15_oven_10_n04111531_2826.png
cornet-s,7,549,NaN,chair,oven,c15,8229_cop_dnn_c15_oven_10_n04111531_17923.png
cornet-s,7,550,NaN,bicycle,oven,c15,8230_cop_dnn_c15_oven_10_n04111531_12147.png
cornet-s,7,551,NaN,chair,chair,c15,8231_cop_dnn_c15_chair_10_n04429376_1161.png
cornet-s,7,552,NaN,chair,chair,c15,8232_cop_dnn_c15_chair_10_n02791124_14.png
cornet-s,7,553,NaN,chair,chair,c15,8233_cop_dnn_c15_chair_10_n04099969_9152.png
cornet-s,7,554,NaN,chair,chair,c15,8234_cop_dnn_c15_chair_10_n03376595_3038.png
cornet-s,7,555,NaN,clock,chair,c15,8235_cop_dnn_c15_chair_10_n04429376_13191.png
cornet-s,7,556,NaN,airplane,chair,c15,8236_cop_dnn_c15_chair_10_n03376595_6850.png
cornet-s,7,557,NaN,chair,chair,c15,8237_cop_dnn_c15_chair_10_n04099969_905.png
cornet-s,7,558,NaN,chair,chair,c15,8238_cop_dnn_c15_chair_10_n03376595_2666.png
cornet-s,7,559,NaN,chair,chair,c15,8239_cop_dnn_c15_chair_10_n04099969_16296.png
cornet-s,7,560,NaN,chair,chair,c15,8240_cop_dnn_c15_chair_10_n04429376_27135.png
cornet-s,7,561,NaN,bottle,bear,c15,8241_cop_dnn_c15_bear_10_n02133161_12592.png
cornet-s,7,562,NaN,bear,bear,c15,8242_cop_dnn_c15_bear_10_n02134084_22074.png
cornet-s,7,563,NaN,bear,bear,c15,8243_cop_dnn_c15_bear_10_n02132136_23202.png
cornet-s,7,564,NaN,clock,bear,c15,8244_cop_dnn_c15_bear_10_n02134418_278.png
cornet-s,7,565,NaN,bear,bear,c15,8245_cop_dnn_c15_bear_10_n02133161_1646.png
cornet-s,7,566,NaN,bear,bear,c15,8246_cop_dnn_c15_bear_10_n02132136_5870.png
cornet-s,7,567,NaN,bear,bear,c15,8247_cop_dnn_c15_bear_10_n02132136_5200.png
cornet-s,7,568,NaN,bear,bear,c15,8248_cop_dnn_c15_bear_10_n02134084_5153.png
cornet-s,7,569,NaN,elephant,bear,c15,8249_cop_dnn_c15_bear_10_n02133161_897.png
cornet-s,7,570,NaN,bear,bear,c15,8250_cop_dnn_c15_bear_10_n02133161_757.png
cornet-s,7,571,NaN,boat,boat,c15,8251_cop_dnn_c15_boat_10_n03344393_2895.png
cornet-s,7,572,NaN,boat,boat,c15,8252_cop_dnn_c15_boat_10_n03344393_4542.png
cornet-s,7,573,NaN,boat,boat,c15,8253_cop_dnn_c15_boat_10_n03662601_3877.png
cornet-s,7,574,NaN,boat,boat,c15,8254_cop_dnn_c15_boat_10_n02951358_19901.png
cornet-s,7,575,NaN,airplane,boat,c15,8255_cop_dnn_c15_boat_10_n03662601_11358.png
cornet-s,7,576,NaN,boat,boat,c15,8256_cop_dnn_c15_boat_10_n02951358_12326.png
cornet-s,7,577,NaN,boat,boat,c15,8257_cop_dnn_c15_boat_10_n03662601_2869.png
cornet-s,7,578,NaN,boat,boat,c15,8258_cop_dnn_c15_boat_10_n02951358_11022.png
cornet-s,7,579,NaN,boat,boat,c15,8259_cop_dnn_c15_boat_10_n03662601_33238.png
cornet-s,7,580,NaN,boat,boat,c15,8260_cop_dnn_c15_boat_10_n04273569_6437.png
cornet-s,7,581,NaN,bottle,cat,c15,8261_cop_dnn_c15_cat_10_n02124075_5043.png
cornet-s,7,582,NaN,dog,cat,c15,8262_cop_dnn_c15_cat_10_n02123597_9652.png
cornet-s,7,583,NaN,bear,cat,c15,8263_cop_dnn_c15_cat_10_n02125311_38971.png
cornet-s,7,584,NaN,cat,cat,c15,8264_cop_dnn_c15_cat_10_n02123159_1521.png
cornet-s,7,585,NaN,cat,cat,c15,8265_cop_dnn_c15_cat_10_n02124075_13894.png
cornet-s,7,586,NaN,clock,cat,c15,8266_cop_dnn_c15_cat_10_n02123159_1359.png
cornet-s,7,587,NaN,cat,cat,c15,8267_cop_dnn_c15_cat_10_n02123045_12736.png
cornet-s,7,588,NaN,cat,cat,c15,8268_cop_dnn_c15_cat_10_n02123159_3379.png
cornet-s,7,589,NaN,cat,cat,c15,8269_cop_dnn_c15_cat_10_n02123597_4948.png
cornet-s,7,590,NaN,cat,cat,c15,8270_cop_dnn_c15_cat_10_n02124075_5632.png
cornet-s,7,591,NaN,bottle,bottle,c15,8271_cop_dnn_c15_bottle_10_n04560804_20128.png
cornet-s,7,592,NaN,bottle,bottle,c15,8272_cop_dnn_c15_bottle_10_n04560804_15525.png
cornet-s,7,593,NaN,bottle,bottle,c15,8273_cop_dnn_c15_bottle_10_n03937543_1970.png
cornet-s,7,594,NaN,knife,bottle,c15,8274_cop_dnn_c15_bottle_10_n04591713_957.png
cornet-s,7,595,NaN,clock,bottle,c15,8275_cop_dnn_c15_bottle_10_n02823428_1219.png
cornet-s,7,596,NaN,bottle,bottle,c15,8276_cop_dnn_c15_bottle_10_n03983396_19611.png
cornet-s,7,597,NaN,knife,bottle,c15,8277_cop_dnn_c15_bottle_10_n03937543_1490.png
cornet-s,7,598,NaN,bottle,bottle,c15,8278_cop_dnn_c15_bottle_10_n03937543_1787.png
cornet-s,7,599,NaN,bottle,bottle,c15,8279_cop_dnn_c15_bottle_10_n04557648_3405.png
cornet-s,7,600,NaN,knife,bottle,c15,8280_cop_dnn_c15_bottle_10_n04560804_477.png
cornet-s,7,601,NaN,chair,truck,c15,8281_cop_dnn_c15_truck_10_n03417042_441.png
cornet-s,7,602,NaN,truck,truck,c15,8282_cop_dnn_c15_truck_10_n03796401_4733.png
cornet-s,7,603,NaN,truck,truck,c15,8283_cop_dnn_c15_truck_10_n03417042_12013.png
cornet-s,7,604,NaN,truck,truck,c15,8284_cop_dnn_c15_truck_10_n04467665_360.png
cornet-s,7,605,NaN,truck,truck,c15,8285_cop_dnn_c15_truck_10_n03417042_27931.png
cornet-s,7,606,NaN,truck,truck,c15,8286_cop_dnn_c15_truck_10_n04467665_67717.png
cornet-s,7,607,NaN,truck,truck,c15,8287_cop_dnn_c15_truck_10_n03417042_8227.png
cornet-s,7,608,NaN,truck,truck,c15,8288_cop_dnn_c15_truck_10_n03417042_3104.png
cornet-s,7,609,NaN,chair,truck,c15,8289_cop_dnn_c15_truck_10_n03796401_6802.png
cornet-s,7,610,NaN,truck,truck,c15,8290_cop_dnn_c15_truck_10_n03417042_4658.png
cornet-s,7,611,NaN,car,car,c15,8291_cop_dnn_c15_car_10_n02814533_39994.png
cornet-s,7,612,NaN,car,car,c15,8292_cop_dnn_c15_car_10_n04285008_9388.png
cornet-s,7,613,NaN,car,car,c15,8293_cop_dnn_c15_car_10_n02814533_1884.png
cornet-s,7,614,NaN,car,car,c15,8294_cop_dnn_c15_car_10_n02814533_42884.png
cornet-s,7,615,NaN,car,car,c15,8295_cop_dnn_c15_car_10_n03100240_1836.png
cornet-s,7,616,NaN,bottle,car,c15,8296_cop_dnn_c15_car_10_n04285008_7243.png
cornet-s,7,617,NaN,car,car,c15,8297_cop_dnn_c15_car_10_n03100240_3398.png
cornet-s,7,618,NaN,airplane,car,c15,8298_cop_dnn_c15_car_10_n03100240_14873.png
cornet-s,7,619,NaN,truck,car,c15,8299_cop_dnn_c15_car_10_n02814533_71181.png
cornet-s,7,620,NaN,car,car,c15,8300_cop_dnn_c15_car_10_n02814533_4811.png
cornet-s,7,621,NaN,bird,bird,c15,8301_cop_dnn_c15_bird_10_n02025239_1478.png
cornet-s,7,622,NaN,bird,bird,c15,8302_cop_dnn_c15_bird_10_n02002556_7139.png
cornet-s,7,623,NaN,knife,bird,c15,8303_cop_dnn_c15_bird_10_n01843383_12222.png
cornet-s,7,624,NaN,bottle,bird,c15,8304_cop_dnn_c15_bird_10_n01797886_28545.png
cornet-s,7,625,NaN,knife,bird,c15,8305_cop_dnn_c15_bird_10_n02018207_439.png
cornet-s,7,626,NaN,bird,bird,c15,8306_cop_dnn_c15_bird_10_n01797886_21440.png
cornet-s,7,627,NaN,bottle,bird,c15,8307_cop_dnn_c15_bird_10_n01795545_6008.png
cornet-s,7,628,NaN,bird,bird,c15,8308_cop_dnn_c15_bird_10_n02006656_4914.png
cornet-s,7,629,NaN,bird,bird,c15,8309_cop_dnn_c15_bird_10_n01534433_7732.png
cornet-s,7,630,NaN,bird,bird,c15,8310_cop_dnn_c15_bird_10_n01796340_21975.png
cornet-s,7,631,NaN,dog,dog,c15,8311_cop_dnn_c15_dog_10_n02106550_3493.png
cornet-s,7,632,NaN,boat,dog,c15,8312_cop_dnn_c15_dog_10_n02091467_13330.png
cornet-s,7,633,NaN,dog,dog,c15,8313_cop_dnn_c15_dog_10_n02093428_3289.png
cornet-s,7,634,NaN,dog,dog,c15,8314_cop_dnn_c15_dog_10_n02097298_3919.png
cornet-s,7,635,NaN,dog,dog,c15,8315_cop_dnn_c15_dog_10_n02109525_13611.png
cornet-s,7,636,NaN,dog,dog,c15,8316_cop_dnn_c15_dog_10_n02110806_9898.png
cornet-s,7,637,NaN,dog,dog,c15,8317_cop_dnn_c15_dog_10_n02106030_11099.png
cornet-s,7,638,NaN,cat,dog,c15,8318_cop_dnn_c15_dog_10_n02113023_3076.png
cornet-s,7,639,NaN,elephant,dog,c15,8319_cop_dnn_c15_dog_10_n02101006_4598.png
cornet-s,7,640,NaN,bear,dog,c15,8320_cop_dnn_c15_dog_10_n02105505_2347.png
cornet-s,7,641,NaN,bottle,knife,c10,8321_cop_dnn_c10_knife_10_n03041632_3617.png
cornet-s,7,642,NaN,knife,knife,c10,8322_cop_dnn_c10_knife_10_n03041632_51581.png
cornet-s,7,643,NaN,knife,knife,c10,8323_cop_dnn_c10_knife_10_n03041632_46185.png
cornet-s,7,644,NaN,knife,knife,c10,8324_cop_dnn_c10_knife_10_n03041632_49363.png
cornet-s,7,645,NaN,knife,knife,c10,8325_cop_dnn_c10_knife_10_n03041632_4318.png
cornet-s,7,646,NaN,knife,knife,c10,8326_cop_dnn_c10_knife_10_n03041632_120.png
cornet-s,7,647,NaN,knife,knife,c10,8327_cop_dnn_c10_knife_10_n03041632_7173.png
cornet-s,7,648,NaN,knife,knife,c10,8328_cop_dnn_c10_knife_10_n03041632_18863.png
cornet-s,7,649,NaN,chair,knife,c10,8329_cop_dnn_c10_knife_10_n03041632_1407.png
cornet-s,7,650,NaN,keyboard,knife,c10,8330_cop_dnn_c10_knife_10_n03041632_31271.png
cornet-s,7,651,NaN,keyboard,keyboard,c10,8331_cop_dnn_c10_keyboard_10_n03085013_6561.png
cornet-s,7,652,NaN,keyboard,keyboard,c10,8332_cop_dnn_c10_keyboard_10_n04505470_986.png
cornet-s,7,653,NaN,keyboard,keyboard,c10,8333_cop_dnn_c10_keyboard_10_n04505470_4672.png
cornet-s,7,654,NaN,keyboard,keyboard,c10,8334_cop_dnn_c10_keyboard_10_n03085013_6424.png
cornet-s,7,655,NaN,keyboard,keyboard,c10,8335_cop_dnn_c10_keyboard_10_n03085013_33447.png
cornet-s,7,656,NaN,keyboard,keyboard,c10,8336_cop_dnn_c10_keyboard_10_n04505470_8937.png
cornet-s,7,657,NaN,keyboard,keyboard,c10,8337_cop_dnn_c10_keyboard_10_n04505470_7928.png
cornet-s,7,658,NaN,clock,keyboard,c10,8338_cop_dnn_c10_keyboard_10_n03085013_23847.png
cornet-s,7,659,NaN,keyboard,keyboard,c10,8339_cop_dnn_c10_keyboard_10_n03085013_18672.png
cornet-s,7,660,NaN,keyboard,keyboard,c10,8340_cop_dnn_c10_keyboard_10_n03085013_22973.png
cornet-s,7,661,NaN,boat,elephant,c10,8341_cop_dnn_c10_elephant_10_n02504458_5882.png
cornet-s,7,662,NaN,elephant,elephant,c10,8342_cop_dnn_c10_elephant_10_n02504013_1374.png
cornet-s,7,663,NaN,boat,elephant,c10,8343_cop_dnn_c10_elephant_10_n02504013_6431.png
cornet-s,7,664,NaN,bear,elephant,c10,8344_cop_dnn_c10_elephant_10_n02504013_1602.png
cornet-s,7,665,NaN,elephant,elephant,c10,8345_cop_dnn_c10_elephant_10_n02504458_11382.png
cornet-s,7,666,NaN,chair,elephant,c10,8346_cop_dnn_c10_elephant_10_n02504013_4594.png
cornet-s,7,667,NaN,elephant,elephant,c10,8347_cop_dnn_c10_elephant_10_n02504458_3716.png
cornet-s,7,668,NaN,elephant,elephant,c10,8348_cop_dnn_c10_elephant_10_n02504458_4351.png
cornet-s,7,669,NaN,elephant,elephant,c10,8349_cop_dnn_c10_elephant_10_n02504458_1803.png
cornet-s,7,670,NaN,elephant,elephant,c10,8350_cop_dnn_c10_elephant_10_n02504013_6423.png
cornet-s,7,671,NaN,bicycle,bicycle,c10,8351_cop_dnn_c10_bicycle_10_n02835271_13649.png
cornet-s,7,672,NaN,chair,bicycle,c10,8352_cop_dnn_c10_bicycle_10_n02835271_19306.png
cornet-s,7,673,NaN,bicycle,bicycle,c10,8353_cop_dnn_c10_bicycle_10_n03792782_8184.png
cornet-s,7,674,NaN,bicycle,bicycle,c10,8354_cop_dnn_c10_bicycle_10_n02835271_20203.png
cornet-s,7,675,NaN,bicycle,bicycle,c10,8355_cop_dnn_c10_bicycle_10_n02835271_1627.png
cornet-s,7,676,NaN,chair,bicycle,c10,8356_cop_dnn_c10_bicycle_10_n02835271_9049.png
cornet-s,7,677,NaN,bicycle,bicycle,c10,8357_cop_dnn_c10_bicycle_10_n02835271_20099.png
cornet-s,7,678,NaN,bicycle,bicycle,c10,8358_cop_dnn_c10_bicycle_10_n02835271_1525.png
cornet-s,7,679,NaN,bicycle,bicycle,c10,8359_cop_dnn_c10_bicycle_10_n03792782_34681.png
cornet-s,7,680,NaN,elephant,bicycle,c10,8360_cop_dnn_c10_bicycle_10_n03792782_7139.png
cornet-s,7,681,NaN,airplane,airplane,c10,8361_cop_dnn_c10_airplane_10_n02690373_4728.png
cornet-s,7,682,NaN,airplane,airplane,c10,8362_cop_dnn_c10_airplane_10_n02690373_5405.png
cornet-s,7,683,NaN,airplane,airplane,c10,8363_cop_dnn_c10_airplane_10_n02690373_1450.png
cornet-s,7,684,NaN,airplane,airplane,c10,8364_cop_dnn_c10_airplane_10_n02690373_13610.png
cornet-s,7,685,NaN,airplane,airplane,c10,8365_cop_dnn_c10_airplane_10_n02690373_9963.png
cornet-s,7,686,NaN,airplane,airplane,c10,8366_cop_dnn_c10_airplane_10_n02690373_7046.png
cornet-s,7,687,NaN,airplane,airplane,c10,8367_cop_dnn_c10_airplane_10_n02690373_2823.png
cornet-s,7,688,NaN,boat,airplane,c10,8368_cop_dnn_c10_airplane_10_n02690373_4410.png
cornet-s,7,689,NaN,airplane,airplane,c10,8369_cop_dnn_c10_airplane_10_n02690373_19074.png
cornet-s,7,690,NaN,airplane,airplane,c10,8370_cop_dnn_c10_airplane_10_n02690373_2561.png
cornet-s,7,691,NaN,clock,clock,c10,8371_cop_dnn_c10_clock_10_n02708093_8038.png
cornet-s,7,692,NaN,clock,clock,c10,8372_cop_dnn_c10_clock_10_n03196217_714.png
cornet-s,7,693,NaN,clock,clock,c10,8373_cop_dnn_c10_clock_10_n03196217_8261.png
cornet-s,7,694,NaN,clock,clock,c10,8374_cop_dnn_c10_clock_10_n04548280_596.png
cornet-s,7,695,NaN,knife,clock,c10,8375_cop_dnn_c10_clock_10_n02708093_3171.png
cornet-s,7,696,NaN,clock,clock,c10,8376_cop_dnn_c10_clock_10_n02708093_564.png
cornet-s,7,697,NaN,bottle,clock,c10,8377_cop_dnn_c10_clock_10_n03196217_4009.png
cornet-s,7,698,NaN,clock,clock,c10,8378_cop_dnn_c10_clock_10_n04548280_5991.png
cornet-s,7,699,NaN,clock,clock,c10,8379_cop_dnn_c10_clock_10_n04548280_1630.png
cornet-s,7,700,NaN,clock,clock,c10,8380_cop_dnn_c10_clock_10_n02708093_5944.png
cornet-s,7,701,NaN,chair,oven,c10,8381_cop_dnn_c10_oven_10_n04111531_11110.png
cornet-s,7,702,NaN,chair,oven,c10,8382_cop_dnn_c10_oven_10_n04111531_18979.png
cornet-s,7,703,NaN,chair,oven,c10,8383_cop_dnn_c10_oven_10_n04111531_11079.png
cornet-s,7,704,NaN,truck,oven,c10,8384_cop_dnn_c10_oven_10_n04111531_12725.png
cornet-s,7,705,NaN,airplane,oven,c10,8385_cop_dnn_c10_oven_10_n04111531_3082.png
cornet-s,7,706,NaN,knife,oven,c10,8386_cop_dnn_c10_oven_10_n04111531_845.png
cornet-s,7,707,NaN,chair,oven,c10,8387_cop_dnn_c10_oven_10_n04111531_1798.png
cornet-s,7,708,NaN,clock,oven,c10,8388_cop_dnn_c10_oven_10_n04111531_1009.png
cornet-s,7,709,NaN,oven,oven,c10,8389_cop_dnn_c10_oven_10_n04111531_6181.png
cornet-s,7,710,NaN,bottle,oven,c10,8390_cop_dnn_c10_oven_10_n04111531_663.png
cornet-s,7,711,NaN,chair,chair,c10,8391_cop_dnn_c10_chair_10_n04099969_4298.png
cornet-s,7,712,NaN,chair,chair,c10,8392_cop_dnn_c10_chair_10_n03376595_754.png
cornet-s,7,713,NaN,chair,chair,c10,8393_cop_dnn_c10_chair_10_n04099969_39773.png
cornet-s,7,714,NaN,chair,chair,c10,8394_cop_dnn_c10_chair_10_n04099969_26462.png
cornet-s,7,715,NaN,chair,chair,c10,8395_cop_dnn_c10_chair_10_n02791124_733.png
cornet-s,7,716,NaN,chair,chair,c10,8396_cop_dnn_c10_chair_10_n04429376_23944.png
cornet-s,7,717,NaN,chair,chair,c10,8397_cop_dnn_c10_chair_10_n04099969_8892.png
cornet-s,7,718,NaN,chair,chair,c10,8398_cop_dnn_c10_chair_10_n04099969_8647.png
cornet-s,7,719,NaN,chair,chair,c10,8399_cop_dnn_c10_chair_10_n03376595_2768.png
cornet-s,7,720,NaN,chair,chair,c10,8400_cop_dnn_c10_chair_10_n04429376_3459.png
cornet-s,7,721,NaN,bear,bear,c10,8401_cop_dnn_c10_bear_10_n02134418_12733.png
cornet-s,7,722,NaN,dog,bear,c10,8402_cop_dnn_c10_bear_10_n02133161_3088.png
cornet-s,7,723,NaN,bear,bear,c10,8403_cop_dnn_c10_bear_10_n02134084_967.png
cornet-s,7,724,NaN,bear,bear,c10,8404_cop_dnn_c10_bear_10_n02134418_258.png
cornet-s,7,725,NaN,bear,bear,c10,8405_cop_dnn_c10_bear_10_n02134084_14926.png
cornet-s,7,726,NaN,bear,bear,c10,8406_cop_dnn_c10_bear_10_n02132136_6646.png
cornet-s,7,727,NaN,bear,bear,c10,8407_cop_dnn_c10_bear_10_n02134084_6969.png
cornet-s,7,728,NaN,bear,bear,c10,8408_cop_dnn_c10_bear_10_n02132136_3616.png
cornet-s,7,729,NaN,bear,bear,c10,8409_cop_dnn_c10_bear_10_n02134418_3388.png
cornet-s,7,730,NaN,clock,bear,c10,8410_cop_dnn_c10_bear_10_n02132136_5118.png
cornet-s,7,731,NaN,boat,boat,c10,8411_cop_dnn_c10_boat_10_n03344393_4916.png
cornet-s,7,732,NaN,boat,boat,c10,8412_cop_dnn_c10_boat_10_n03344393_1145.png
cornet-s,7,733,NaN,boat,boat,c10,8413_cop_dnn_c10_boat_10_n02951358_3046.png
cornet-s,7,734,NaN,boat,boat,c10,8414_cop_dnn_c10_boat_10_n04612504_2280.png
cornet-s,7,735,NaN,airplane,boat,c10,8415_cop_dnn_c10_boat_10_n04273569_6071.png
cornet-s,7,736,NaN,boat,boat,c10,8416_cop_dnn_c10_boat_10_n04273569_8740.png
cornet-s,7,737,NaN,airplane,boat,c10,8417_cop_dnn_c10_boat_10_n03344393_1467.png
cornet-s,7,738,NaN,airplane,boat,c10,8418_cop_dnn_c10_boat_10_n03662601_35967.png
cornet-s,7,739,NaN,boat,boat,c10,8419_cop_dnn_c10_boat_10_n02951358_8194.png
cornet-s,7,740,NaN,clock,boat,c10,8420_cop_dnn_c10_boat_10_n03662601_7027.png
cornet-s,7,741,NaN,bear,cat,c10,8421_cop_dnn_c10_cat_10_n02123597_647.png
cornet-s,7,742,NaN,bear,cat,c10,8422_cop_dnn_c10_cat_10_n02123045_4842.png
cornet-s,7,743,NaN,chair,cat,c10,8423_cop_dnn_c10_cat_10_n02123159_4802.png
cornet-s,7,744,NaN,cat,cat,c10,8424_cop_dnn_c10_cat_10_n02124075_11763.png
cornet-s,7,745,NaN,cat,cat,c10,8425_cop_dnn_c10_cat_10_n02123159_5695.png
cornet-s,7,746,NaN,keyboard,cat,c10,8426_cop_dnn_c10_cat_10_n02123045_12088.png
cornet-s,7,747,NaN,cat,cat,c10,8427_cop_dnn_c10_cat_10_n02124075_11526.png
cornet-s,7,748,NaN,cat,cat,c10,8428_cop_dnn_c10_cat_10_n02123394_2784.png
cornet-s,7,749,NaN,cat,cat,c10,8429_cop_dnn_c10_cat_10_n02123394_673.png
cornet-s,7,750,NaN,cat,cat,c10,8430_cop_dnn_c10_cat_10_n02124075_5867.png
cornet-s,7,751,NaN,knife,bottle,c10,8431_cop_dnn_c10_bottle_10_n02823428_3824.png
cornet-s,7,752,NaN,keyboard,bottle,c10,8432_cop_dnn_c10_bottle_10_n03983396_4321.png
cornet-s,7,753,NaN,keyboard,bottle,c10,8433_cop_dnn_c10_bottle_10_n02823428_8375.png
cornet-s,7,754,NaN,bottle,bottle,c10,8434_cop_dnn_c10_bottle_10_n03937543_4134.png
cornet-s,7,755,NaN,bottle,bottle,c10,8435_cop_dnn_c10_bottle_10_n04591713_5519.png
cornet-s,7,756,NaN,bottle,bottle,c10,8436_cop_dnn_c10_bottle_10_n04560804_15983.png
cornet-s,7,757,NaN,knife,bottle,c10,8437_cop_dnn_c10_bottle_10_n04591713_4904.png
cornet-s,7,758,NaN,bottle,bottle,c10,8438_cop_dnn_c10_bottle_10_n03983396_8552.png
cornet-s,7,759,NaN,bottle,bottle,c10,8439_cop_dnn_c10_bottle_10_n04557648_4010.png
cornet-s,7,760,NaN,bottle,bottle,c10,8440_cop_dnn_c10_bottle_10_n03937543_3054.png
cornet-s,7,761,NaN,keyboard,truck,c10,8441_cop_dnn_c10_truck_10_n03417042_3466.png
cornet-s,7,762,NaN,truck,truck,c10,8442_cop_dnn_c10_truck_10_n03417042_27113.png
cornet-s,7,763,NaN,airplane,truck,c10,8443_cop_dnn_c10_truck_10_n04467665_30835.png
cornet-s,7,764,NaN,airplane,truck,c10,8444_cop_dnn_c10_truck_10_n04467665_79452.png
cornet-s,7,765,NaN,truck,truck,c10,8445_cop_dnn_c10_truck_10_n04467665_48928.png
cornet-s,7,766,NaN,truck,truck,c10,8446_cop_dnn_c10_truck_10_n04467665_42482.png
cornet-s,7,767,NaN,truck,truck,c10,8447_cop_dnn_c10_truck_10_n03417042_5886.png
cornet-s,7,768,NaN,truck,truck,c10,8448_cop_dnn_c10_truck_10_n03417042_11515.png
cornet-s,7,769,NaN,truck,truck,c10,8449_cop_dnn_c10_truck_10_n03796401_17504.png
cornet-s,7,770,NaN,truck,truck,c10,8450_cop_dnn_c10_truck_10_n04467665_35146.png
cornet-s,7,771,NaN,car,car,c10,8451_cop_dnn_c10_car_10_n02814533_27408.png
cornet-s,7,772,NaN,truck,car,c10,8452_cop_dnn_c10_car_10_n03100240_3855.png
cornet-s,7,773,NaN,car,car,c10,8453_cop_dnn_c10_car_10_n03100240_1453.png
cornet-s,7,774,NaN,car,car,c10,8454_cop_dnn_c10_car_10_n04285008_9404.png
cornet-s,7,775,NaN,bottle,car,c10,8455_cop_dnn_c10_car_10_n04285008_788.png
cornet-s,7,776,NaN,car,car,c10,8456_cop_dnn_c10_car_10_n04285008_15027.png
cornet-s,7,777,NaN,clock,car,c10,8457_cop_dnn_c10_car_10_n03100240_18019.png
cornet-s,7,778,NaN,airplane,car,c10,8458_cop_dnn_c10_car_10_n04285008_3961.png
cornet-s,7,779,NaN,car,car,c10,8459_cop_dnn_c10_car_10_n03100240_1794.png
cornet-s,7,780,NaN,car,car,c10,8460_cop_dnn_c10_car_10_n04285008_3015.png
cornet-s,7,781,NaN,bird,bird,c10,8461_cop_dnn_c10_bird_10_n02037110_16643.png
cornet-s,7,782,NaN,boat,bird,c10,8462_cop_dnn_c10_bird_10_n01582220_2373.png
cornet-s,7,783,NaN,bird,bird,c10,8463_cop_dnn_c10_bird_10_n01797886_2548.png
cornet-s,7,784,NaN,boat,bird,c10,8464_cop_dnn_c10_bird_10_n01818515_6981.png
cornet-s,7,785,NaN,dog,bird,c10,8465_cop_dnn_c10_bird_10_n02017213_13638.png
cornet-s,7,786,NaN,bird,bird,c10,8466_cop_dnn_c10_bird_10_n02002556_3463.png
cornet-s,7,787,NaN,bird,bird,c10,8467_cop_dnn_c10_bird_10_n02033041_2770.png
cornet-s,7,788,NaN,chair,bird,c10,8468_cop_dnn_c10_bird_10_n02011460_5534.png
cornet-s,7,789,NaN,bird,bird,c10,8469_cop_dnn_c10_bird_10_n01817953_5869.png
cornet-s,7,790,NaN,airplane,bird,c10,8470_cop_dnn_c10_bird_10_n02025239_2821.png
cornet-s,7,791,NaN,chair,dog,c10,8471_cop_dnn_c10_dog_10_n02106550_11454.png
cornet-s,7,792,NaN,clock,dog,c10,8472_cop_dnn_c10_dog_10_n02095570_9201.png
cornet-s,7,793,NaN,dog,dog,c10,8473_cop_dnn_c10_dog_10_n02110063_12344.png
cornet-s,7,794,NaN,cat,dog,c10,8474_cop_dnn_c10_dog_10_n02112706_4688.png
cornet-s,7,795,NaN,dog,dog,c10,8475_cop_dnn_c10_dog_10_n02093991_3639.png
cornet-s,7,796,NaN,dog,dog,c10,8476_cop_dnn_c10_dog_10_n02111277_472.png
cornet-s,7,797,NaN,chair,dog,c10,8477_cop_dnn_c10_dog_10_n02109047_17437.png
cornet-s,7,798,NaN,dog,dog,c10,8478_cop_dnn_c10_dog_10_n02089867_7861.png
cornet-s,7,799,NaN,boat,dog,c10,8479_cop_dnn_c10_dog_10_n02089867_8170.png
cornet-s,7,800,NaN,dog,dog,c10,8480_cop_dnn_c10_dog_10_n02097047_4848.png
cornet-s,7,801,NaN,clock,knife,c05,8481_cop_dnn_c05_knife_10_n03041632_55711.png
cornet-s,7,802,NaN,chair,knife,c05,8482_cop_dnn_c05_knife_10_n03041632_96361.png
cornet-s,7,803,NaN,clock,knife,c05,8483_cop_dnn_c05_knife_10_n03041632_2438.png
cornet-s,7,804,NaN,knife,knife,c05,8484_cop_dnn_c05_knife_10_n03041632_35365.png
cornet-s,7,805,NaN,clock,knife,c05,8485_cop_dnn_c05_knife_10_n03041632_7832.png
cornet-s,7,806,NaN,keyboard,knife,c05,8486_cop_dnn_c05_knife_10_n03041632_6309.png
cornet-s,7,807,NaN,chair,knife,c05,8487_cop_dnn_c05_knife_10_n03041632_45312.png
cornet-s,7,808,NaN,clock,knife,c05,8488_cop_dnn_c05_knife_10_n03041632_5820.png
cornet-s,7,809,NaN,knife,knife,c05,8489_cop_dnn_c05_knife_10_n03041632_24277.png
cornet-s,7,810,NaN,chair,knife,c05,8490_cop_dnn_c05_knife_10_n03041632_32377.png
cornet-s,7,811,NaN,clock,keyboard,c05,8491_cop_dnn_c05_keyboard_10_n03085013_19586.png
cornet-s,7,812,NaN,keyboard,keyboard,c05,8492_cop_dnn_c05_keyboard_10_n03085013_108.png
cornet-s,7,813,NaN,keyboard,keyboard,c05,8493_cop_dnn_c05_keyboard_10_n04505470_4725.png
cornet-s,7,814,NaN,keyboard,keyboard,c05,8494_cop_dnn_c05_keyboard_10_n04505470_4620.png
cornet-s,7,815,NaN,keyboard,keyboard,c05,8495_cop_dnn_c05_keyboard_10_n03085013_23118.png
cornet-s,7,816,NaN,clock,keyboard,c05,8496_cop_dnn_c05_keyboard_10_n04505470_4477.png
cornet-s,7,817,NaN,chair,keyboard,c05,8497_cop_dnn_c05_keyboard_10_n04505470_5046.png
cornet-s,7,818,NaN,chair,keyboard,c05,8498_cop_dnn_c05_keyboard_10_n03085013_22013.png
cornet-s,7,819,NaN,keyboard,keyboard,c05,8499_cop_dnn_c05_keyboard_10_n04505470_4806.png
cornet-s,7,820,NaN,chair,keyboard,c05,8500_cop_dnn_c05_keyboard_10_n03085013_23534.png
cornet-s,7,821,NaN,elephant,elephant,c05,8501_cop_dnn_c05_elephant_10_n02504013_4139.png
cornet-s,7,822,NaN,chair,elephant,c05,8502_cop_dnn_c05_elephant_10_n02504458_6721.png
cornet-s,7,823,NaN,knife,elephant,c05,8503_cop_dnn_c05_elephant_10_n02504013_3138.png
cornet-s,7,824,NaN,airplane,elephant,c05,8504_cop_dnn_c05_elephant_10_n02504458_5451.png
cornet-s,7,825,NaN,chair,elephant,c05,8505_cop_dnn_c05_elephant_10_n02504013_1534.png
cornet-s,7,826,NaN,bear,elephant,c05,8506_cop_dnn_c05_elephant_10_n02504458_150.png
cornet-s,7,827,NaN,elephant,elephant,c05,8507_cop_dnn_c05_elephant_10_n02504458_6433.png
cornet-s,7,828,NaN,boat,elephant,c05,8508_cop_dnn_c05_elephant_10_n02504458_8269.png
cornet-s,7,829,NaN,elephant,elephant,c05,8509_cop_dnn_c05_elephant_10_n02504013_18498.png
cornet-s,7,830,NaN,clock,elephant,c05,8510_cop_dnn_c05_elephant_10_n02504013_7923.png
cornet-s,7,831,NaN,bicycle,bicycle,c05,8511_cop_dnn_c05_bicycle_10_n02835271_13396.png
cornet-s,7,832,NaN,bicycle,bicycle,c05,8512_cop_dnn_c05_bicycle_10_n03792782_49817.png
cornet-s,7,833,NaN,clock,bicycle,c05,8513_cop_dnn_c05_bicycle_10_n02835271_12263.png
cornet-s,7,834,NaN,chair,bicycle,c05,8514_cop_dnn_c05_bicycle_10_n03792782_15282.png
cornet-s,7,835,NaN,clock,bicycle,c05,8515_cop_dnn_c05_bicycle_10_n03792782_53662.png
cornet-s,7,836,NaN,chair,bicycle,c05,8516_cop_dnn_c05_bicycle_10_n02835271_949.png
cornet-s,7,837,NaN,bicycle,bicycle,c05,8517_cop_dnn_c05_bicycle_10_n03792782_16532.png
cornet-s,7,838,NaN,clock,bicycle,c05,8518_cop_dnn_c05_bicycle_10_n03792782_14424.png
cornet-s,7,839,NaN,bicycle,bicycle,c05,8519_cop_dnn_c05_bicycle_10_n02835271_12787.png
cornet-s,7,840,NaN,boat,bicycle,c05,8520_cop_dnn_c05_bicycle_10_n02835271_8563.png
cornet-s,7,841,NaN,airplane,airplane,c05,8521_cop_dnn_c05_airplane_10_n02690373_283.png
cornet-s,7,842,NaN,airplane,airplane,c05,8522_cop_dnn_c05_airplane_10_n02690373_2498.png
cornet-s,7,843,NaN,airplane,airplane,c05,8523_cop_dnn_c05_airplane_10_n02690373_817.png
cornet-s,7,844,NaN,airplane,airplane,c05,8524_cop_dnn_c05_airplane_10_n02690373_6992.png
cornet-s,7,845,NaN,airplane,airplane,c05,8525_cop_dnn_c05_airplane_10_n02690373_2185.png
cornet-s,7,846,NaN,airplane,airplane,c05,8526_cop_dnn_c05_airplane_10_n02690373_4195.png
cornet-s,7,847,NaN,clock,airplane,c05,8527_cop_dnn_c05_airplane_10_n02690373_17603.png
cornet-s,7,848,NaN,airplane,airplane,c05,8528_cop_dnn_c05_airplane_10_n02690373_13585.png
cornet-s,7,849,NaN,airplane,airplane,c05,8529_cop_dnn_c05_airplane_10_n02690373_748.png
cornet-s,7,850,NaN,airplane,airplane,c05,8530_cop_dnn_c05_airplane_10_n02690373_3956.png
cornet-s,7,851,NaN,clock,clock,c05,8531_cop_dnn_c05_clock_10_n04548280_5166.png
cornet-s,7,852,NaN,clock,clock,c05,8532_cop_dnn_c05_clock_10_n02708093_6619.png
cornet-s,7,853,NaN,clock,clock,c05,8533_cop_dnn_c05_clock_10_n02708093_1733.png
cornet-s,7,854,NaN,clock,clock,c05,8534_cop_dnn_c05_clock_10_n02708093_2197.png
cornet-s,7,855,NaN,knife,clock,c05,8535_cop_dnn_c05_clock_10_n04548280_1025.png
cornet-s,7,856,NaN,chair,clock,c05,8536_cop_dnn_c05_clock_10_n02708093_3172.png
cornet-s,7,857,NaN,clock,clock,c05,8537_cop_dnn_c05_clock_10_n03196217_219.png
cornet-s,7,858,NaN,clock,clock,c05,8538_cop_dnn_c05_clock_10_n04548280_8474.png
cornet-s,7,859,NaN,clock,clock,c05,8539_cop_dnn_c05_clock_10_n04548280_6099.png
cornet-s,7,860,NaN,clock,clock,c05,8540_cop_dnn_c05_clock_10_n04548280_5978.png
cornet-s,7,861,NaN,chair,oven,c05,8541_cop_dnn_c05_oven_10_n04111531_6211.png
cornet-s,7,862,NaN,knife,oven,c05,8542_cop_dnn_c05_oven_10_n04111531_8269.png
cornet-s,7,863,NaN,clock,oven,c05,8543_cop_dnn_c05_oven_10_n04111531_4189.png
cornet-s,7,864,NaN,knife,oven,c05,8544_cop_dnn_c05_oven_10_n04111531_2937.png
cornet-s,7,865,NaN,clock,oven,c05,8545_cop_dnn_c05_oven_10_n04111531_8462.png
cornet-s,7,866,NaN,knife,oven,c05,8546_cop_dnn_c05_oven_10_n04111531_14611.png
cornet-s,7,867,NaN,clock,oven,c05,8547_cop_dnn_c05_oven_10_n04111531_6903.png
cornet-s,7,868,NaN,airplane,oven,c05,8548_cop_dnn_c05_oven_10_n04111531_807.png
cornet-s,7,869,NaN,clock,oven,c05,8549_cop_dnn_c05_oven_10_n04111531_1815.png
cornet-s,7,870,NaN,knife,oven,c05,8550_cop_dnn_c05_oven_10_n04111531_1398.png
cornet-s,7,871,NaN,chair,chair,c05,8551_cop_dnn_c05_chair_10_n02791124_3941.png
cornet-s,7,872,NaN,chair,chair,c05,8552_cop_dnn_c05_chair_10_n03376595_18546.png
cornet-s,7,873,NaN,knife,chair,c05,8553_cop_dnn_c05_chair_10_n03376595_2716.png
cornet-s,7,874,NaN,clock,chair,c05,8554_cop_dnn_c05_chair_10_n04429376_5238.png
cornet-s,7,875,NaN,chair,chair,c05,8555_cop_dnn_c05_chair_10_n02791124_4777.png
cornet-s,7,876,NaN,chair,chair,c05,8556_cop_dnn_c05_chair_10_n04099969_18991.png
cornet-s,7,877,NaN,clock,chair,c05,8557_cop_dnn_c05_chair_10_n03376595_8064.png
cornet-s,7,878,NaN,chair,chair,c05,8558_cop_dnn_c05_chair_10_n04099969_2177.png
cornet-s,7,879,NaN,chair,chair,c05,8559_cop_dnn_c05_chair_10_n04099969_6825.png
cornet-s,7,880,NaN,chair,chair,c05,8560_cop_dnn_c05_chair_10_n04429376_619.png
cornet-s,7,881,NaN,boat,bear,c05,8561_cop_dnn_c05_bear_10_n02134418_4883.png
cornet-s,7,882,NaN,clock,bear,c05,8562_cop_dnn_c05_bear_10_n02134418_573.png
cornet-s,7,883,NaN,bear,bear,c05,8563_cop_dnn_c05_bear_10_n02134418_3495.png
cornet-s,7,884,NaN,bottle,bear,c05,8564_cop_dnn_c05_bear_10_n02134084_8469.png
cornet-s,7,885,NaN,clock,bear,c05,8565_cop_dnn_c05_bear_10_n02134418_2604.png
cornet-s,7,886,NaN,clock,bear,c05,8566_cop_dnn_c05_bear_10_n02132136_462.png
cornet-s,7,887,NaN,bottle,bear,c05,8567_cop_dnn_c05_bear_10_n02133161_2670.png
cornet-s,7,888,NaN,bear,bear,c05,8568_cop_dnn_c05_bear_10_n02134084_983.png
cornet-s,7,889,NaN,bear,bear,c05,8569_cop_dnn_c05_bear_10_n02132136_13441.png
cornet-s,7,890,NaN,bear,bear,c05,8570_cop_dnn_c05_bear_10_n02132136_2982.png
cornet-s,7,891,NaN,airplane,boat,c05,8571_cop_dnn_c05_boat_10_n03344393_3784.png
cornet-s,7,892,NaN,boat,boat,c05,8572_cop_dnn_c05_boat_10_n03344393_7065.png
cornet-s,7,893,NaN,airplane,boat,c05,8573_cop_dnn_c05_boat_10_n02951358_26463.png
cornet-s,7,894,NaN,chair,boat,c05,8574_cop_dnn_c05_boat_10_n04612504_6842.png
cornet-s,7,895,NaN,airplane,boat,c05,8575_cop_dnn_c05_boat_10_n03344393_11013.png
cornet-s,7,896,NaN,boat,boat,c05,8576_cop_dnn_c05_boat_10_n03344393_11310.png
cornet-s,7,897,NaN,boat,boat,c05,8577_cop_dnn_c05_boat_10_n02951358_52954.png
cornet-s,7,898,NaN,airplane,boat,c05,8578_cop_dnn_c05_boat_10_n03662601_1968.png
cornet-s,7,899,NaN,boat,boat,c05,8579_cop_dnn_c05_boat_10_n04273569_10962.png
cornet-s,7,900,NaN,airplane,boat,c05,8580_cop_dnn_c05_boat_10_n04273569_21984.png
cornet-s,7,901,NaN,boat,cat,c05,8581_cop_dnn_c05_cat_10_n02123159_6080.png
cornet-s,7,902,NaN,clock,cat,c05,8582_cop_dnn_c05_cat_10_n02123394_7559.png
cornet-s,7,903,NaN,knife,cat,c05,8583_cop_dnn_c05_cat_10_n02123045_11562.png
cornet-s,7,904,NaN,clock,cat,c05,8584_cop_dnn_c05_cat_10_n02124075_12460.png
cornet-s,7,905,NaN,cat,cat,c05,8585_cop_dnn_c05_cat_10_n02123045_5892.png
cornet-s,7,906,NaN,cat,cat,c05,8586_cop_dnn_c05_cat_10_n02123394_417.png
cornet-s,7,907,NaN,cat,cat,c05,8587_cop_dnn_c05_cat_10_n02123159_6483.png
cornet-s,7,908,NaN,airplane,cat,c05,8588_cop_dnn_c05_cat_10_n02125311_10606.png
cornet-s,7,909,NaN,clock,cat,c05,8589_cop_dnn_c05_cat_10_n02125311_6399.png
cornet-s,7,910,NaN,bottle,cat,c05,8590_cop_dnn_c05_cat_10_n02123597_6366.png
cornet-s,7,911,NaN,airplane,bottle,c05,8591_cop_dnn_c05_bottle_10_n04560804_25678.png
cornet-s,7,912,NaN,keyboard,bottle,c05,8592_cop_dnn_c05_bottle_10_n04579145_7460.png
cornet-s,7,913,NaN,clock,bottle,c05,8593_cop_dnn_c05_bottle_10_n03937543_3164.png
cornet-s,7,914,NaN,bottle,bottle,c05,8594_cop_dnn_c05_bottle_10_n04560804_21531.png
cornet-s,7,915,NaN,bottle,bottle,c05,8595_cop_dnn_c05_bottle_10_n04579145_34.png
cornet-s,7,916,NaN,bottle,bottle,c05,8596_cop_dnn_c05_bottle_10_n04560804_6095.png
cornet-s,7,917,NaN,bottle,bottle,c05,8597_cop_dnn_c05_bottle_10_n04560804_6672.png
cornet-s,7,918,NaN,clock,bottle,c05,8598_cop_dnn_c05_bottle_10_n04560804_998.png
cornet-s,7,919,NaN,clock,bottle,c05,8599_cop_dnn_c05_bottle_10_n03937543_5917.png
cornet-s,7,920,NaN,bottle,bottle,c05,8600_cop_dnn_c05_bottle_10_n04557648_4922.png
cornet-s,7,921,NaN,truck,truck,c05,8601_cop_dnn_c05_truck_10_n04467665_9031.png
cornet-s,7,922,NaN,airplane,truck,c05,8602_cop_dnn_c05_truck_10_n04467665_3038.png
cornet-s,7,923,NaN,truck,truck,c05,8603_cop_dnn_c05_truck_10_n04467665_8955.png
cornet-s,7,924,NaN,truck,truck,c05,8604_cop_dnn_c05_truck_10_n03417042_8139.png
cornet-s,7,925,NaN,truck,truck,c05,8605_cop_dnn_c05_truck_10_n03417042_7422.png
cornet-s,7,926,NaN,truck,truck,c05,8606_cop_dnn_c05_truck_10_n04467665_4593.png
cornet-s,7,927,NaN,airplane,truck,c05,8607_cop_dnn_c05_truck_10_n04467665_70733.png
cornet-s,7,928,NaN,chair,truck,c05,8608_cop_dnn_c05_truck_10_n03417042_1578.png
cornet-s,7,929,NaN,knife,truck,c05,8609_cop_dnn_c05_truck_10_n03796401_8581.png
cornet-s,7,930,NaN,chair,truck,c05,8610_cop_dnn_c05_truck_10_n03417042_12308.png
cornet-s,7,931,NaN,airplane,car,c05,8611_cop_dnn_c05_car_10_n02814533_67600.png
cornet-s,7,932,NaN,car,car,c05,8612_cop_dnn_c05_car_10_n03100240_15795.png
cornet-s,7,933,NaN,clock,car,c05,8613_cop_dnn_c05_car_10_n02814533_65555.png
cornet-s,7,934,NaN,airplane,car,c05,8614_cop_dnn_c05_car_10_n02814533_32693.png
cornet-s,7,935,NaN,keyboard,car,c05,8615_cop_dnn_c05_car_10_n04285008_11240.png
cornet-s,7,936,NaN,knife,car,c05,8616_cop_dnn_c05_car_10_n04285008_8075.png
cornet-s,7,937,NaN,airplane,car,c05,8617_cop_dnn_c05_car_10_n02814533_27942.png
cornet-s,7,938,NaN,car,car,c05,8618_cop_dnn_c05_car_10_n04285008_11781.png
cornet-s,7,939,NaN,airplane,car,c05,8619_cop_dnn_c05_car_10_n02814533_35888.png
cornet-s,7,940,NaN,car,car,c05,8620_cop_dnn_c05_car_10_n04285008_16775.png
cornet-s,7,941,NaN,clock,bird,c05,8621_cop_dnn_c05_bird_10_n01601694_17557.png
cornet-s,7,942,NaN,knife,bird,c05,8622_cop_dnn_c05_bird_10_n01819313_6167.png
cornet-s,7,943,NaN,clock,bird,c05,8623_cop_dnn_c05_bird_10_n01616318_7911.png
cornet-s,7,944,NaN,chair,bird,c05,8624_cop_dnn_c05_bird_10_n02056570_9041.png
cornet-s,7,945,NaN,boat,bird,c05,8625_cop_dnn_c05_bird_10_n01855032_413.png
cornet-s,7,946,NaN,clock,bird,c05,8626_cop_dnn_c05_bird_10_n01843065_4853.png
cornet-s,7,947,NaN,boat,bird,c05,8627_cop_dnn_c05_bird_10_n01592084_23185.png
cornet-s,7,948,NaN,chair,bird,c05,8628_cop_dnn_c05_bird_10_n02017213_7387.png
cornet-s,7,949,NaN,elephant,bird,c05,8629_cop_dnn_c05_bird_10_n01622779_9551.png
cornet-s,7,950,NaN,knife,bird,c05,8630_cop_dnn_c05_bird_10_n01531178_8650.png
cornet-s,7,951,NaN,elephant,dog,c05,8631_cop_dnn_c05_dog_10_n02095889_471.png
cornet-s,7,952,NaN,bear,dog,c05,8632_cop_dnn_c05_dog_10_n02106030_4644.png
cornet-s,7,953,NaN,clock,dog,c05,8633_cop_dnn_c05_dog_10_n02085936_4809.png
cornet-s,7,954,NaN,bottle,dog,c05,8634_cop_dnn_c05_dog_10_n02086646_4991.png
cornet-s,7,955,NaN,dog,dog,c05,8635_cop_dnn_c05_dog_10_n02097209_2201.png
cornet-s,7,956,NaN,clock,dog,c05,8636_cop_dnn_c05_dog_10_n02099267_19316.png
cornet-s,7,957,NaN,boat,dog,c05,8637_cop_dnn_c05_dog_10_n02112350_8324.png
cornet-s,7,958,NaN,boat,dog,c05,8638_cop_dnn_c05_dog_10_n02087394_22925.png
cornet-s,7,959,NaN,elephant,dog,c05,8639_cop_dnn_c05_dog_10_n02092339_368.png
cornet-s,7,960,NaN,bottle,dog,c05,8640_cop_dnn_c05_dog_10_n02105505_3767.png
cornet-s,7,961,NaN,clock,knife,c03,8641_cop_dnn_c03_knife_10_n03041632_93026.png
cornet-s,7,962,NaN,clock,knife,c03,8642_cop_dnn_c03_knife_10_n03041632_1671.png
cornet-s,7,963,NaN,airplane,knife,c03,8643_cop_dnn_c03_knife_10_n03041632_21477.png
cornet-s,7,964,NaN,clock,knife,c03,8644_cop_dnn_c03_knife_10_n03041632_6708.png
cornet-s,7,965,NaN,knife,knife,c03,8645_cop_dnn_c03_knife_10_n03041632_965.png
cornet-s,7,966,NaN,knife,knife,c03,8646_cop_dnn_c03_knife_10_n03041632_737.png
cornet-s,7,967,NaN,airplane,knife,c03,8647_cop_dnn_c03_knife_10_n03041632_32197.png
cornet-s,7,968,NaN,knife,knife,c03,8648_cop_dnn_c03_knife_10_n03041632_4787.png
cornet-s,7,969,NaN,keyboard,knife,c03,8649_cop_dnn_c03_knife_10_n03041632_4279.png
cornet-s,7,970,NaN,knife,knife,c03,8650_cop_dnn_c03_knife_10_n03041632_1964.png
cornet-s,7,971,NaN,keyboard,keyboard,c03,8651_cop_dnn_c03_keyboard_10_n04505470_5346.png
cornet-s,7,972,NaN,knife,keyboard,c03,8652_cop_dnn_c03_keyboard_10_n03085013_5579.png
cornet-s,7,973,NaN,keyboard,keyboard,c03,8653_cop_dnn_c03_keyboard_10_n03085013_23658.png
cornet-s,7,974,NaN,bottle,keyboard,c03,8654_cop_dnn_c03_keyboard_10_n04505470_4484.png
cornet-s,7,975,NaN,keyboard,keyboard,c03,8655_cop_dnn_c03_keyboard_10_n04505470_8749.png
cornet-s,7,976,NaN,keyboard,keyboard,c03,8656_cop_dnn_c03_keyboard_10_n03085013_24102.png
cornet-s,7,977,NaN,knife,keyboard,c03,8657_cop_dnn_c03_keyboard_10_n03085013_4012.png
cornet-s,7,978,NaN,chair,keyboard,c03,8658_cop_dnn_c03_keyboard_10_n03085013_2362.png
cornet-s,7,979,NaN,knife,keyboard,c03,8659_cop_dnn_c03_keyboard_10_n03085013_20388.png
cornet-s,7,980,NaN,knife,keyboard,c03,8660_cop_dnn_c03_keyboard_10_n03085013_18668.png
cornet-s,7,981,NaN,airplane,elephant,c03,8661_cop_dnn_c03_elephant_10_n02504013_10802.png
cornet-s,7,982,NaN,elephant,elephant,c03,8662_cop_dnn_c03_elephant_10_n02504458_66.png
cornet-s,7,983,NaN,clock,elephant,c03,8663_cop_dnn_c03_elephant_10_n02504458_8134.png
cornet-s,7,984,NaN,clock,elephant,c03,8664_cop_dnn_c03_elephant_10_n02504013_18036.png
cornet-s,7,985,NaN,airplane,elephant,c03,8665_cop_dnn_c03_elephant_10_n02504458_4979.png
cornet-s,7,986,NaN,airplane,elephant,c03,8666_cop_dnn_c03_elephant_10_n02504013_8308.png
cornet-s,7,987,NaN,airplane,elephant,c03,8667_cop_dnn_c03_elephant_10_n02504458_5858.png
cornet-s,7,988,NaN,clock,elephant,c03,8668_cop_dnn_c03_elephant_10_n02504458_6119.png
cornet-s,7,989,NaN,clock,elephant,c03,8669_cop_dnn_c03_elephant_10_n02504458_4861.png
cornet-s,7,990,NaN,clock,elephant,c03,8670_cop_dnn_c03_elephant_10_n02504458_7331.png
cornet-s,7,991,NaN,airplane,bicycle,c03,8671_cop_dnn_c03_bicycle_10_n02835271_439.png
cornet-s,7,992,NaN,airplane,bicycle,c03,8672_cop_dnn_c03_bicycle_10_n03792782_4604.png
cornet-s,7,993,NaN,clock,bicycle,c03,8673_cop_dnn_c03_bicycle_10_n03792782_30362.png
cornet-s,7,994,NaN,knife,bicycle,c03,8674_cop_dnn_c03_bicycle_10_n03792782_24763.png
cornet-s,7,995,NaN,clock,bicycle,c03,8675_cop_dnn_c03_bicycle_10_n02835271_2714.png
cornet-s,7,996,NaN,clock,bicycle,c03,8676_cop_dnn_c03_bicycle_10_n02835271_1530.png
cornet-s,7,997,NaN,clock,bicycle,c03,8677_cop_dnn_c03_bicycle_10_n03792782_11720.png
cornet-s,7,998,NaN,airplane,bicycle,c03,8678_cop_dnn_c03_bicycle_10_n03792782_7477.png
cornet-s,7,999,NaN,clock,bicycle,c03,8679_cop_dnn_c03_bicycle_10_n03792782_8840.png
cornet-s,7,1000,NaN,clock,bicycle,c03,8680_cop_dnn_c03_bicycle_10_n03792782_2525.png
cornet-s,7,1001,NaN,airplane,airplane,c03,8681_cop_dnn_c03_airplane_10_n02690373_1206.png
cornet-s,7,1002,NaN,airplane,airplane,c03,8682_cop_dnn_c03_airplane_10_n02690373_3860.png
cornet-s,7,1003,NaN,airplane,airplane,c03,8683_cop_dnn_c03_airplane_10_n02690373_4119.png
cornet-s,7,1004,NaN,airplane,airplane,c03,8684_cop_dnn_c03_airplane_10_n02690373_4495.png
cornet-s,7,1005,NaN,airplane,airplane,c03,8685_cop_dnn_c03_airplane_10_n02690373_2203.png
cornet-s,7,1006,NaN,airplane,airplane,c03,8686_cop_dnn_c03_airplane_10_n02690373_466.png
cornet-s,7,1007,NaN,airplane,airplane,c03,8687_cop_dnn_c03_airplane_10_n02690373_971.png
cornet-s,7,1008,NaN,airplane,airplane,c03,8688_cop_dnn_c03_airplane_10_n02690373_9743.png
cornet-s,7,1009,NaN,airplane,airplane,c03,8689_cop_dnn_c03_airplane_10_n02690373_8175.png
cornet-s,7,1010,NaN,airplane,airplane,c03,8690_cop_dnn_c03_airplane_10_n02690373_1589.png
cornet-s,7,1011,NaN,clock,clock,c03,8691_cop_dnn_c03_clock_10_n04548280_9743.png
cornet-s,7,1012,NaN,clock,clock,c03,8692_cop_dnn_c03_clock_10_n02708093_7122.png
cornet-s,7,1013,NaN,clock,clock,c03,8693_cop_dnn_c03_clock_10_n03196217_5469.png
cornet-s,7,1014,NaN,clock,clock,c03,8694_cop_dnn_c03_clock_10_n02708093_4387.png
cornet-s,7,1015,NaN,airplane,clock,c03,8695_cop_dnn_c03_clock_10_n04548280_6246.png
cornet-s,7,1016,NaN,clock,clock,c03,8696_cop_dnn_c03_clock_10_n04548280_5692.png
cornet-s,7,1017,NaN,clock,clock,c03,8697_cop_dnn_c03_clock_10_n02708093_3674.png
cornet-s,7,1018,NaN,clock,clock,c03,8698_cop_dnn_c03_clock_10_n04548280_8454.png
cornet-s,7,1019,NaN,clock,clock,c03,8699_cop_dnn_c03_clock_10_n02708093_4783.png
cornet-s,7,1020,NaN,clock,clock,c03,8700_cop_dnn_c03_clock_10_n02708093_7821.png
cornet-s,7,1021,NaN,airplane,oven,c03,8701_cop_dnn_c03_oven_10_n04111531_4418.png
cornet-s,7,1022,NaN,clock,oven,c03,8702_cop_dnn_c03_oven_10_n04111531_11265.png
cornet-s,7,1023,NaN,clock,oven,c03,8703_cop_dnn_c03_oven_10_n04111531_6756.png
cornet-s,7,1024,NaN,knife,oven,c03,8704_cop_dnn_c03_oven_10_n04111531_3202.png
cornet-s,7,1025,NaN,airplane,oven,c03,8705_cop_dnn_c03_oven_10_n04111531_14208.png
cornet-s,7,1026,NaN,clock,oven,c03,8706_cop_dnn_c03_oven_10_n04111531_13296.png
cornet-s,7,1027,NaN,knife,oven,c03,8707_cop_dnn_c03_oven_10_n04111531_2260.png
cornet-s,7,1028,NaN,airplane,oven,c03,8708_cop_dnn_c03_oven_10_n04111531_5279.png
cornet-s,7,1029,NaN,clock,oven,c03,8709_cop_dnn_c03_oven_10_n04111531_7034.png
cornet-s,7,1030,NaN,clock,oven,c03,8710_cop_dnn_c03_oven_10_n04111531_10537.png
cornet-s,7,1031,NaN,chair,chair,c03,8711_cop_dnn_c03_chair_10_n04429376_17171.png
cornet-s,7,1032,NaN,chair,chair,c03,8712_cop_dnn_c03_chair_10_n04429376_10158.png
cornet-s,7,1033,NaN,chair,chair,c03,8713_cop_dnn_c03_chair_10_n04099969_6425.png
cornet-s,7,1034,NaN,chair,chair,c03,8714_cop_dnn_c03_chair_10_n04099969_8478.png
cornet-s,7,1035,NaN,chair,chair,c03,8715_cop_dnn_c03_chair_10_n04099969_25085.png
cornet-s,7,1036,NaN,clock,chair,c03,8716_cop_dnn_c03_chair_10_n03376595_10507.png
cornet-s,7,1037,NaN,clock,chair,c03,8717_cop_dnn_c03_chair_10_n03376595_18787.png
cornet-s,7,1038,NaN,knife,chair,c03,8718_cop_dnn_c03_chair_10_n02791124_3817.png
cornet-s,7,1039,NaN,knife,chair,c03,8719_cop_dnn_c03_chair_10_n02791124_923.png
cornet-s,7,1040,NaN,clock,chair,c03,8720_cop_dnn_c03_chair_10_n04429376_28627.png
cornet-s,7,1041,NaN,airplane,bear,c03,8721_cop_dnn_c03_bear_10_n02134418_11090.png
cornet-s,7,1042,NaN,airplane,bear,c03,8722_cop_dnn_c03_bear_10_n02134084_7532.png
cornet-s,7,1043,NaN,boat,bear,c03,8723_cop_dnn_c03_bear_10_n02132136_1467.png
cornet-s,7,1044,NaN,airplane,bear,c03,8724_cop_dnn_c03_bear_10_n02134084_18375.png
cornet-s,7,1045,NaN,clock,bear,c03,8725_cop_dnn_c03_bear_10_n02134418_4959.png
cornet-s,7,1046,NaN,knife,bear,c03,8726_cop_dnn_c03_bear_10_n02134418_2891.png
cornet-s,7,1047,NaN,airplane,bear,c03,8727_cop_dnn_c03_bear_10_n02134418_3969.png
cornet-s,7,1048,NaN,airplane,bear,c03,8728_cop_dnn_c03_bear_10_n02134084_15888.png
cornet-s,7,1049,NaN,airplane,bear,c03,8729_cop_dnn_c03_bear_10_n02134418_3039.png
cornet-s,7,1050,NaN,knife,bear,c03,8730_cop_dnn_c03_bear_10_n02134084_24140.png
cornet-s,7,1051,NaN,airplane,boat,c03,8731_cop_dnn_c03_boat_10_n03344393_7856.png
cornet-s,7,1052,NaN,knife,boat,c03,8732_cop_dnn_c03_boat_10_n03344393_9918.png
cornet-s,7,1053,NaN,chair,boat,c03,8733_cop_dnn_c03_boat_10_n03662601_22186.png
cornet-s,7,1054,NaN,airplane,boat,c03,8734_cop_dnn_c03_boat_10_n03662601_34360.png
cornet-s,7,1055,NaN,airplane,boat,c03,8735_cop_dnn_c03_boat_10_n03662601_10065.png
cornet-s,7,1056,NaN,clock,boat,c03,8736_cop_dnn_c03_boat_10_n03662601_6085.png
cornet-s,7,1057,NaN,airplane,boat,c03,8737_cop_dnn_c03_boat_10_n03344393_202.png
cornet-s,7,1058,NaN,airplane,boat,c03,8738_cop_dnn_c03_boat_10_n02951358_15271.png
cornet-s,7,1059,NaN,clock,boat,c03,8739_cop_dnn_c03_boat_10_n02951358_2991.png
cornet-s,7,1060,NaN,clock,boat,c03,8740_cop_dnn_c03_boat_10_n02951358_14624.png
cornet-s,7,1061,NaN,clock,cat,c03,8741_cop_dnn_c03_cat_10_n02123597_295.png
cornet-s,7,1062,NaN,clock,cat,c03,8742_cop_dnn_c03_cat_10_n02124075_11168.png
cornet-s,7,1063,NaN,clock,cat,c03,8743_cop_dnn_c03_cat_10_n02123394_1626.png
cornet-s,7,1064,NaN,airplane,cat,c03,8744_cop_dnn_c03_cat_10_n02123159_7089.png
cornet-s,7,1065,NaN,knife,cat,c03,8745_cop_dnn_c03_cat_10_n02123597_13800.png
cornet-s,7,1066,NaN,clock,cat,c03,8746_cop_dnn_c03_cat_10_n02123394_5042.png
cornet-s,7,1067,NaN,knife,cat,c03,8747_cop_dnn_c03_cat_10_n02123159_4300.png
cornet-s,7,1068,NaN,keyboard,cat,c03,8748_cop_dnn_c03_cat_10_n02123597_556.png
cornet-s,7,1069,NaN,knife,cat,c03,8749_cop_dnn_c03_cat_10_n02124075_12382.png
cornet-s,7,1070,NaN,knife,cat,c03,8750_cop_dnn_c03_cat_10_n02123045_6320.png
cornet-s,7,1071,NaN,bottle,bottle,c03,8751_cop_dnn_c03_bottle_10_n04591713_3597.png
cornet-s,7,1072,NaN,bottle,bottle,c03,8752_cop_dnn_c03_bottle_10_n03937543_2674.png
cornet-s,7,1073,NaN,knife,bottle,c03,8753_cop_dnn_c03_bottle_10_n03937543_3915.png
cornet-s,7,1074,NaN,knife,bottle,c03,8754_cop_dnn_c03_bottle_10_n03983396_6011.png
cornet-s,7,1075,NaN,bottle,bottle,c03,8755_cop_dnn_c03_bottle_10_n04579145_1443.png
cornet-s,7,1076,NaN,bottle,bottle,c03,8756_cop_dnn_c03_bottle_10_n04560804_33251.png
cornet-s,7,1077,NaN,bottle,bottle,c03,8757_cop_dnn_c03_bottle_10_n04560804_14792.png
cornet-s,7,1078,NaN,knife,bottle,c03,8758_cop_dnn_c03_bottle_10_n04557648_2714.png
cornet-s,7,1079,NaN,clock,bottle,c03,8759_cop_dnn_c03_bottle_10_n04591713_6069.png
cornet-s,7,1080,NaN,knife,bottle,c03,8760_cop_dnn_c03_bottle_10_n04560804_5421.png
cornet-s,7,1081,NaN,truck,truck,c03,8761_cop_dnn_c03_truck_10_n03417042_3857.png
cornet-s,7,1082,NaN,knife,truck,c03,8762_cop_dnn_c03_truck_10_n03796401_5933.png
cornet-s,7,1083,NaN,truck,truck,c03,8763_cop_dnn_c03_truck_10_n03796401_2767.png
cornet-s,7,1084,NaN,knife,truck,c03,8764_cop_dnn_c03_truck_10_n03796401_2751.png
cornet-s,7,1085,NaN,truck,truck,c03,8765_cop_dnn_c03_truck_10_n03796401_430.png
cornet-s,7,1086,NaN,truck,truck,c03,8766_cop_dnn_c03_truck_10_n04467665_4872.png
cornet-s,7,1087,NaN,airplane,truck,c03,8767_cop_dnn_c03_truck_10_n04467665_3281.png
cornet-s,7,1088,NaN,airplane,truck,c03,8768_cop_dnn_c03_truck_10_n03796401_1773.png
cornet-s,7,1089,NaN,truck,truck,c03,8769_cop_dnn_c03_truck_10_n04467665_5606.png
cornet-s,7,1090,NaN,clock,truck,c03,8770_cop_dnn_c03_truck_10_n03796401_3386.png
cornet-s,7,1091,NaN,truck,car,c03,8771_cop_dnn_c03_car_10_n04285008_10884.png
cornet-s,7,1092,NaN,airplane,car,c03,8772_cop_dnn_c03_car_10_n03100240_409.png
cornet-s,7,1093,NaN,keyboard,car,c03,8773_cop_dnn_c03_car_10_n03100240_12148.png
cornet-s,7,1094,NaN,airplane,car,c03,8774_cop_dnn_c03_car_10_n03100240_8480.png
cornet-s,7,1095,NaN,airplane,car,c03,8775_cop_dnn_c03_car_10_n02814533_83237.png
cornet-s,7,1096,NaN,car,car,c03,8776_cop_dnn_c03_car_10_n02814533_75014.png
cornet-s,7,1097,NaN,truck,car,c03,8777_cop_dnn_c03_car_10_n03100240_5160.png
cornet-s,7,1098,NaN,airplane,car,c03,8778_cop_dnn_c03_car_10_n04285008_11352.png
cornet-s,7,1099,NaN,airplane,car,c03,8779_cop_dnn_c03_car_10_n03100240_9683.png
cornet-s,7,1100,NaN,airplane,car,c03,8780_cop_dnn_c03_car_10_n04285008_11744.png
cornet-s,7,1101,NaN,clock,bird,c03,8781_cop_dnn_c03_bird_10_n01820546_1634.png
cornet-s,7,1102,NaN,knife,bird,c03,8782_cop_dnn_c03_bird_10_n01531178_19190.png
cornet-s,7,1103,NaN,airplane,bird,c03,8783_cop_dnn_c03_bird_10_n01828970_16456.png
cornet-s,7,1104,NaN,airplane,bird,c03,8784_cop_dnn_c03_bird_10_n02051845_1682.png
cornet-s,7,1105,NaN,clock,bird,c03,8785_cop_dnn_c03_bird_10_n01616318_4102.png
cornet-s,7,1106,NaN,elephant,bird,c03,8786_cop_dnn_c03_bird_10_n01855672_3750.png
cornet-s,7,1107,NaN,clock,bird,c03,8787_cop_dnn_c03_bird_10_n02051845_15407.png
cornet-s,7,1108,NaN,knife,bird,c03,8788_cop_dnn_c03_bird_10_n01829413_5849.png
cornet-s,7,1109,NaN,boat,bird,c03,8789_cop_dnn_c03_bird_10_n02007558_3526.png
cornet-s,7,1110,NaN,knife,bird,c03,8790_cop_dnn_c03_bird_10_n01560419_7915.png
cornet-s,7,1111,NaN,clock,dog,c03,8791_cop_dnn_c03_dog_10_n02106030_14146.png
cornet-s,7,1112,NaN,clock,dog,c03,8792_cop_dnn_c03_dog_10_n02095570_2494.png
cornet-s,7,1113,NaN,clock,dog,c03,8793_cop_dnn_c03_dog_10_n02087394_4043.png
cornet-s,7,1114,NaN,airplane,dog,c03,8794_cop_dnn_c03_dog_10_n02094258_6311.png
cornet-s,7,1115,NaN,clock,dog,c03,8795_cop_dnn_c03_dog_10_n02093754_4448.png
cornet-s,7,1116,NaN,clock,dog,c03,8796_cop_dnn_c03_dog_10_n02102177_7155.png
cornet-s,7,1117,NaN,airplane,dog,c03,8797_cop_dnn_c03_dog_10_n02095570_280.png
cornet-s,7,1118,NaN,clock,dog,c03,8798_cop_dnn_c03_dog_10_n02102040_844.png
cornet-s,7,1119,NaN,boat,dog,c03,8799_cop_dnn_c03_dog_10_n02107574_5273.png
cornet-s,7,1120,NaN,clock,dog,c03,8800_cop_dnn_c03_dog_10_n02108915_9457.png
cornet-s,7,1121,NaN,clock,knife,c01,8801_cop_dnn_c01_knife_10_n03041632_15299.png
cornet-s,7,1122,NaN,knife,knife,c01,8802_cop_dnn_c01_knife_10_n03041632_22214.png
cornet-s,7,1123,NaN,knife,knife,c01,8803_cop_dnn_c01_knife_10_n03041632_17067.png
cornet-s,7,1124,NaN,clock,knife,c01,8804_cop_dnn_c01_knife_10_n03041632_36789.png
cornet-s,7,1125,NaN,knife,knife,c01,8805_cop_dnn_c01_knife_10_n03041632_16606.png
cornet-s,7,1126,NaN,clock,knife,c01,8806_cop_dnn_c01_knife_10_n03041632_2390.png
cornet-s,7,1127,NaN,clock,knife,c01,8807_cop_dnn_c01_knife_10_n03041632_37536.png
cornet-s,7,1128,NaN,clock,knife,c01,8808_cop_dnn_c01_knife_10_n03041632_30801.png
cornet-s,7,1129,NaN,clock,knife,c01,8809_cop_dnn_c01_knife_10_n03041632_17100.png
cornet-s,7,1130,NaN,knife,knife,c01,8810_cop_dnn_c01_knife_10_n03041632_18304.png
cornet-s,7,1131,NaN,clock,keyboard,c01,8811_cop_dnn_c01_keyboard_10_n04505470_1581.png
cornet-s,7,1132,NaN,knife,keyboard,c01,8812_cop_dnn_c01_keyboard_10_n03085013_14764.png
cornet-s,7,1133,NaN,clock,keyboard,c01,8813_cop_dnn_c01_keyboard_10_n03085013_20923.png
cornet-s,7,1134,NaN,clock,keyboard,c01,8814_cop_dnn_c01_keyboard_10_n03085013_17305.png
cornet-s,7,1135,NaN,clock,keyboard,c01,8815_cop_dnn_c01_keyboard_10_n04505470_486.png
cornet-s,7,1136,NaN,knife,keyboard,c01,8816_cop_dnn_c01_keyboard_10_n03085013_3439.png
cornet-s,7,1137,NaN,knife,keyboard,c01,8817_cop_dnn_c01_keyboard_10_n03085013_8677.png
cornet-s,7,1138,NaN,clock,keyboard,c01,8818_cop_dnn_c01_keyboard_10_n04505470_4579.png
cornet-s,7,1139,NaN,clock,keyboard,c01,8819_cop_dnn_c01_keyboard_10_n03085013_24566.png
cornet-s,7,1140,NaN,clock,keyboard,c01,8820_cop_dnn_c01_keyboard_10_n04505470_788.png
cornet-s,7,1141,NaN,knife,elephant,c01,8821_cop_dnn_c01_elephant_10_n02504458_13382.png
cornet-s,7,1142,NaN,clock,elephant,c01,8822_cop_dnn_c01_elephant_10_n02504458_5746.png
cornet-s,7,1143,NaN,clock,elephant,c01,8823_cop_dnn_c01_elephant_10_n02504458_4950.png
cornet-s,7,1144,NaN,knife,elephant,c01,8824_cop_dnn_c01_elephant_10_n02504458_7841.png
cornet-s,7,1145,NaN,knife,elephant,c01,8825_cop_dnn_c01_elephant_10_n02504458_567.png
cornet-s,7,1146,NaN,knife,elephant,c01,8826_cop_dnn_c01_elephant_10_n02504458_3656.png
cornet-s,7,1147,NaN,knife,elephant,c01,8827_cop_dnn_c01_elephant_10_n02504013_10156.png
cornet-s,7,1148,NaN,clock,elephant,c01,8828_cop_dnn_c01_elephant_10_n02504013_5201.png
cornet-s,7,1149,NaN,clock,elephant,c01,8829_cop_dnn_c01_elephant_10_n02504013_5918.png
cornet-s,7,1150,NaN,knife,elephant,c01,8830_cop_dnn_c01_elephant_10_n02504013_16929.png
cornet-s,7,1151,NaN,knife,bicycle,c01,8831_cop_dnn_c01_bicycle_10_n02835271_8324.png
cornet-s,7,1152,NaN,clock,bicycle,c01,8832_cop_dnn_c01_bicycle_10_n02835271_8439.png
cornet-s,7,1153,NaN,knife,bicycle,c01,8833_cop_dnn_c01_bicycle_10_n02835271_13919.png
cornet-s,7,1154,NaN,clock,bicycle,c01,8834_cop_dnn_c01_bicycle_10_n03792782_1475.png
cornet-s,7,1155,NaN,clock,bicycle,c01,8835_cop_dnn_c01_bicycle_10_n02835271_6563.png
cornet-s,7,1156,NaN,clock,bicycle,c01,8836_cop_dnn_c01_bicycle_10_n03792782_18947.png
cornet-s,7,1157,NaN,clock,bicycle,c01,8837_cop_dnn_c01_bicycle_10_n02835271_8596.png
cornet-s,7,1158,NaN,knife,bicycle,c01,8838_cop_dnn_c01_bicycle_10_n03792782_613.png
cornet-s,7,1159,NaN,clock,bicycle,c01,8839_cop_dnn_c01_bicycle_10_n03792782_5758.png
cornet-s,7,1160,NaN,clock,bicycle,c01,8840_cop_dnn_c01_bicycle_10_n03792782_850.png
cornet-s,7,1161,NaN,knife,airplane,c01,8841_cop_dnn_c01_airplane_10_n02690373_5277.png
cornet-s,7,1162,NaN,knife,airplane,c01,8842_cop_dnn_c01_airplane_10_n02690373_20011.png
cornet-s,7,1163,NaN,knife,airplane,c01,8843_cop_dnn_c01_airplane_10_n02690373_8214.png
cornet-s,7,1164,NaN,knife,airplane,c01,8844_cop_dnn_c01_airplane_10_n02690373_8846.png
cornet-s,7,1165,NaN,knife,airplane,c01,8845_cop_dnn_c01_airplane_10_n02690373_3539.png
cornet-s,7,1166,NaN,knife,airplane,c01,8846_cop_dnn_c01_airplane_10_n02690373_764.png
cornet-s,7,1167,NaN,knife,airplane,c01,8847_cop_dnn_c01_airplane_10_n02690373_220.png
cornet-s,7,1168,NaN,knife,airplane,c01,8848_cop_dnn_c01_airplane_10_n02690373_9529.png
cornet-s,7,1169,NaN,airplane,airplane,c01,8849_cop_dnn_c01_airplane_10_n02690373_7457.png
cornet-s,7,1170,NaN,knife,airplane,c01,8850_cop_dnn_c01_airplane_10_n02690373_8521.png
cornet-s,7,1171,NaN,knife,clock,c01,8851_cop_dnn_c01_clock_10_n03196217_7968.png
cornet-s,7,1172,NaN,clock,clock,c01,8852_cop_dnn_c01_clock_10_n02708093_1532.png
cornet-s,7,1173,NaN,bottle,clock,c01,8853_cop_dnn_c01_clock_10_n04548280_5408.png
cornet-s,7,1174,NaN,knife,clock,c01,8854_cop_dnn_c01_clock_10_n04548280_3799.png
cornet-s,7,1175,NaN,clock,clock,c01,8855_cop_dnn_c01_clock_10_n04548280_4666.png
cornet-s,7,1176,NaN,clock,clock,c01,8856_cop_dnn_c01_clock_10_n02708093_3496.png
cornet-s,7,1177,NaN,knife,clock,c01,8857_cop_dnn_c01_clock_10_n03196217_8999.png
cornet-s,7,1178,NaN,knife,clock,c01,8858_cop_dnn_c01_clock_10_n04548280_9816.png
cornet-s,7,1179,NaN,knife,clock,c01,8859_cop_dnn_c01_clock_10_n04548280_10335.png
cornet-s,7,1180,NaN,knife,clock,c01,8860_cop_dnn_c01_clock_10_n03196217_7026.png
cornet-s,7,1181,NaN,clock,oven,c01,8861_cop_dnn_c01_oven_10_n04111531_5077.png
cornet-s,7,1182,NaN,knife,oven,c01,8862_cop_dnn_c01_oven_10_n04111531_7050.png
cornet-s,7,1183,NaN,clock,oven,c01,8863_cop_dnn_c01_oven_10_n04111531_7283.png
cornet-s,7,1184,NaN,knife,oven,c01,8864_cop_dnn_c01_oven_10_n04111531_12843.png
cornet-s,7,1185,NaN,clock,oven,c01,8865_cop_dnn_c01_oven_10_n04111531_9455.png
cornet-s,7,1186,NaN,airplane,oven,c01,8866_cop_dnn_c01_oven_10_n04111531_12053.png
cornet-s,7,1187,NaN,knife,oven,c01,8867_cop_dnn_c01_oven_10_n04111531_3902.png
cornet-s,7,1188,NaN,clock,oven,c01,8868_cop_dnn_c01_oven_10_n04111531_20359.png
cornet-s,7,1189,NaN,clock,oven,c01,8869_cop_dnn_c01_oven_10_n04111531_6783.png
cornet-s,7,1190,NaN,airplane,oven,c01,8870_cop_dnn_c01_oven_10_n04111531_4467.png
cornet-s,7,1191,NaN,clock,chair,c01,8871_cop_dnn_c01_chair_10_n03376595_262.png
cornet-s,7,1192,NaN,knife,chair,c01,8872_cop_dnn_c01_chair_10_n03376595_8012.png
cornet-s,7,1193,NaN,knife,chair,c01,8873_cop_dnn_c01_chair_10_n04099969_34656.png
cornet-s,7,1194,NaN,knife,chair,c01,8874_cop_dnn_c01_chair_10_n03376595_89.png
cornet-s,7,1195,NaN,knife,chair,c01,8875_cop_dnn_c01_chair_10_n04099969_19264.png
cornet-s,7,1196,NaN,knife,chair,c01,8876_cop_dnn_c01_chair_10_n04429376_15544.png
cornet-s,7,1197,NaN,clock,chair,c01,8877_cop_dnn_c01_chair_10_n04429376_27697.png
cornet-s,7,1198,NaN,knife,chair,c01,8878_cop_dnn_c01_chair_10_n04099969_1802.png
cornet-s,7,1199,NaN,knife,chair,c01,8879_cop_dnn_c01_chair_10_n02791124_2772.png
cornet-s,7,1200,NaN,knife,chair,c01,8880_cop_dnn_c01_chair_10_n03376595_2534.png
cornet-s,7,1201,NaN,clock,bear,c01,8881_cop_dnn_c01_bear_10_n02134084_4339.png
cornet-s,7,1202,NaN,clock,bear,c01,8882_cop_dnn_c01_bear_10_n02133161_12739.png
cornet-s,7,1203,NaN,knife,bear,c01,8883_cop_dnn_c01_bear_10_n02133161_10257.png
cornet-s,7,1204,NaN,knife,bear,c01,8884_cop_dnn_c01_bear_10_n02134084_9248.png
cornet-s,7,1205,NaN,clock,bear,c01,8885_cop_dnn_c01_bear_10_n02133161_7390.png
cornet-s,7,1206,NaN,clock,bear,c01,8886_cop_dnn_c01_bear_10_n02134084_6935.png
cornet-s,7,1207,NaN,clock,bear,c01,8887_cop_dnn_c01_bear_10_n02133161_1764.png
cornet-s,7,1208,NaN,clock,bear,c01,8888_cop_dnn_c01_bear_10_n02132136_149.png
cornet-s,7,1209,NaN,clock,bear,c01,8889_cop_dnn_c01_bear_10_n02132136_9965.png
cornet-s,7,1210,NaN,airplane,bear,c01,8890_cop_dnn_c01_bear_10_n02133161_1715.png
cornet-s,7,1211,NaN,knife,boat,c01,8891_cop_dnn_c01_boat_10_n02951358_474.png
cornet-s,7,1212,NaN,knife,boat,c01,8892_cop_dnn_c01_boat_10_n04273569_21470.png
cornet-s,7,1213,NaN,knife,boat,c01,8893_cop_dnn_c01_boat_10_n03662601_14014.png
cornet-s,7,1214,NaN,knife,boat,c01,8894_cop_dnn_c01_boat_10_n02951358_11271.png
cornet-s,7,1215,NaN,clock,boat,c01,8895_cop_dnn_c01_boat_10_n04273569_210.png
cornet-s,7,1216,NaN,knife,boat,c01,8896_cop_dnn_c01_boat_10_n03344393_5091.png
cornet-s,7,1217,NaN,knife,boat,c01,8897_cop_dnn_c01_boat_10_n03344393_4873.png
cornet-s,7,1218,NaN,knife,boat,c01,8898_cop_dnn_c01_boat_10_n03344393_2882.png
cornet-s,7,1219,NaN,knife,boat,c01,8899_cop_dnn_c01_boat_10_n02951358_18762.png
cornet-s,7,1220,NaN,clock,boat,c01,8900_cop_dnn_c01_boat_10_n02951358_31811.png
cornet-s,7,1221,NaN,clock,cat,c01,8901_cop_dnn_c01_cat_10_n02123159_2101.png
cornet-s,7,1222,NaN,knife,cat,c01,8902_cop_dnn_c01_cat_10_n02124075_15143.png
cornet-s,7,1223,NaN,clock,cat,c01,8903_cop_dnn_c01_cat_10_n02125311_45242.png
cornet-s,7,1224,NaN,clock,cat,c01,8904_cop_dnn_c01_cat_10_n02123045_12706.png
cornet-s,7,1225,NaN,clock,cat,c01,8905_cop_dnn_c01_cat_10_n02123394_2771.png
cornet-s,7,1226,NaN,knife,cat,c01,8906_cop_dnn_c01_cat_10_n02123045_2536.png
cornet-s,7,1227,NaN,clock,cat,c01,8907_cop_dnn_c01_cat_10_n02124075_11788.png
cornet-s,7,1228,NaN,clock,cat,c01,8908_cop_dnn_c01_cat_10_n02123159_6095.png
cornet-s,7,1229,NaN,knife,cat,c01,8909_cop_dnn_c01_cat_10_n02123045_4611.png
