subj,session,trial,rt,object_response,category,condition,imagename
cornet-s,3,1,NaN,knife,knife,0.00,2561_nse_dnn_0.00_knife_10_n03041632_36215.JPEG
cornet-s,3,2,NaN,knife,knife,0.00,2562_nse_dnn_0.00_knife_10_n03041632_27022.JPEG
cornet-s,3,3,NaN,knife,knife,0.00,2563_nse_dnn_0.00_knife_10_n03041632_44738.JPEG
cornet-s,3,4,NaN,knife,knife,0.00,2564_nse_dnn_0.00_knife_10_n03041632_32785.JPEG
cornet-s,3,5,NaN,knife,knife,0.00,2565_nse_dnn_0.00_knife_10_n03041632_965.JPEG
cornet-s,3,6,NaN,chair,knife,0.00,2566_nse_dnn_0.00_knife_10_n03041632_96345.JPEG
cornet-s,3,7,NaN,knife,knife,0.00,2567_nse_dnn_0.00_knife_10_n03041632_4714.JPEG
cornet-s,3,8,NaN,clock,knife,0.00,2568_nse_dnn_0.00_knife_10_n03041632_19866.JPEG
cornet-s,3,9,NaN,knife,knife,0.00,2569_nse_dnn_0.00_knife_10_n03041632_27832.JPEG
cornet-s,3,10,NaN,chair,knife,0.00,2570_nse_dnn_0.00_knife_10_n03041632_3926.JPEG
cornet-s,3,11,NaN,keyboard,keyboard,0.00,2571_nse_dnn_0.00_keyboard_10_n03085013_20302.JPEG
cornet-s,3,12,NaN,keyboard,keyboard,0.00,2572_nse_dnn_0.00_keyboard_10_n03085013_7152.JPEG
cornet-s,3,13,NaN,chair,keyboard,0.00,2573_nse_dnn_0.00_keyboard_10_n03085013_3980.JPEG
cornet-s,3,14,NaN,keyboard,keyboard,0.00,2574_nse_dnn_0.00_keyboard_10_n04505470_1342.JPEG
cornet-s,3,15,NaN,keyboard,keyboard,0.00,2575_nse_dnn_0.00_keyboard_10_n04505470_4440.JPEG
cornet-s,3,16,NaN,keyboard,keyboard,0.00,2576_nse_dnn_0.00_keyboard_10_n04505470_1648.JPEG
cornet-s,3,17,NaN,keyboard,keyboard,0.00,2577_nse_dnn_0.00_keyboard_10_n03085013_5738.JPEG
cornet-s,3,18,NaN,keyboard,keyboard,0.00,2578_nse_dnn_0.00_keyboard_10_n04505470_4966.JPEG
cornet-s,3,19,NaN,cat,keyboard,0.00,2579_nse_dnn_0.00_keyboard_10_n03085013_24316.JPEG
cornet-s,3,20,NaN,keyboard,keyboard,0.00,2580_nse_dnn_0.00_keyboard_10_n03085013_7879.JPEG
cornet-s,3,21,NaN,elephant,elephant,0.00,2581_nse_dnn_0.00_elephant_10_n02504013_9401.JPEG
cornet-s,3,22,NaN,elephant,elephant,0.00,2582_nse_dnn_0.00_elephant_10_n02504013_7351.JPEG
cornet-s,3,23,NaN,elephant,elephant,0.00,2583_nse_dnn_0.00_elephant_10_n02504458_6792.JPEG
cornet-s,3,24,NaN,boat,elephant,0.00,2584_nse_dnn_0.00_elephant_10_n02504458_7621.JPEG
cornet-s,3,25,NaN,elephant,elephant,0.00,2585_nse_dnn_0.00_elephant_10_n02504458_4248.JPEG
cornet-s,3,26,NaN,elephant,elephant,0.00,2586_nse_dnn_0.00_elephant_10_n02504458_8414.JPEG
cornet-s,3,27,NaN,elephant,elephant,0.00,2587_nse_dnn_0.00_elephant_10_n02504458_2272.JPEG
cornet-s,3,28,NaN,elephant,elephant,0.00,2588_nse_dnn_0.00_elephant_10_n02504458_4036.JPEG
cornet-s,3,29,NaN,elephant,elephant,0.00,2589_nse_dnn_0.00_elephant_10_n02504458_6109.JPEG
cornet-s,3,30,NaN,elephant,elephant,0.00,2590_nse_dnn_0.00_elephant_10_n02504458_2977.JPEG
cornet-s,3,31,NaN,bicycle,bicycle,0.00,2591_nse_dnn_0.00_bicycle_10_n02835271_4334.JPEG
cornet-s,3,32,NaN,bicycle,bicycle,0.00,2592_nse_dnn_0.00_bicycle_10_n02835271_9286.JPEG
cornet-s,3,33,NaN,bicycle,bicycle,0.00,2593_nse_dnn_0.00_bicycle_10_n03792782_15435.JPEG
cornet-s,3,34,NaN,truck,bicycle,0.00,2594_nse_dnn_0.00_bicycle_10_n03792782_2024.JPEG
cornet-s,3,35,NaN,bicycle,bicycle,0.00,2595_nse_dnn_0.00_bicycle_10_n02835271_21371.JPEG
cornet-s,3,36,NaN,bicycle,bicycle,0.00,2596_nse_dnn_0.00_bicycle_10_n02835271_9860.JPEG
cornet-s,3,37,NaN,bicycle,bicycle,0.00,2597_nse_dnn_0.00_bicycle_10_n02835271_7597.JPEG
cornet-s,3,38,NaN,bicycle,bicycle,0.00,2598_nse_dnn_0.00_bicycle_10_n02835271_24847.JPEG
cornet-s,3,39,NaN,bicycle,bicycle,0.00,2599_nse_dnn_0.00_bicycle_10_n02835271_5986.JPEG
cornet-s,3,40,NaN,bicycle,bicycle,0.00,2600_nse_dnn_0.00_bicycle_10_n03792782_3357.JPEG
cornet-s,3,41,NaN,airplane,airplane,0.00,2601_nse_dnn_0.00_airplane_10_n02690373_1310.JPEG
cornet-s,3,42,NaN,airplane,airplane,0.00,2602_nse_dnn_0.00_airplane_10_n02690373_10657.JPEG
cornet-s,3,43,NaN,airplane,airplane,0.00,2603_nse_dnn_0.00_airplane_10_n02690373_7408.JPEG
cornet-s,3,44,NaN,airplane,airplane,0.00,2604_nse_dnn_0.00_airplane_10_n02690373_4495.JPEG
cornet-s,3,45,NaN,airplane,airplane,0.00,2605_nse_dnn_0.00_airplane_10_n02690373_3362.JPEG
cornet-s,3,46,NaN,airplane,airplane,0.00,2606_nse_dnn_0.00_airplane_10_n02690373_7473.JPEG
cornet-s,3,47,NaN,airplane,airplane,0.00,2607_nse_dnn_0.00_airplane_10_n02690373_1983.JPEG
cornet-s,3,48,NaN,airplane,airplane,0.00,2608_nse_dnn_0.00_airplane_10_n02690373_1083.JPEG
cornet-s,3,49,NaN,airplane,airplane,0.00,2609_nse_dnn_0.00_airplane_10_n02690373_8123.JPEG
cornet-s,3,50,NaN,airplane,airplane,0.00,2610_nse_dnn_0.00_airplane_10_n02690373_919.JPEG
cornet-s,3,51,NaN,clock,clock,0.00,2611_nse_dnn_0.00_clock_10_n02708093_6628.JPEG
cornet-s,3,52,NaN,clock,clock,0.00,2612_nse_dnn_0.00_clock_10_n04548280_5545.JPEG
cornet-s,3,53,NaN,clock,clock,0.00,2613_nse_dnn_0.00_clock_10_n03196217_1687.JPEG
cornet-s,3,54,NaN,clock,clock,0.00,2614_nse_dnn_0.00_clock_10_n02708093_5158.JPEG
cornet-s,3,55,NaN,clock,clock,0.00,2615_nse_dnn_0.00_clock_10_n04548280_6235.JPEG
cornet-s,3,56,NaN,clock,clock,0.00,2616_nse_dnn_0.00_clock_10_n04548280_360.JPEG
cornet-s,3,57,NaN,clock,clock,0.00,2617_nse_dnn_0.00_clock_10_n04548280_17194.JPEG
cornet-s,3,58,NaN,chair,clock,0.00,2618_nse_dnn_0.00_clock_10_n04548280_4783.JPEG
cornet-s,3,59,NaN,clock,clock,0.00,2619_nse_dnn_0.00_clock_10_n03196217_7431.JPEG
cornet-s,3,60,NaN,clock,clock,0.00,2620_nse_dnn_0.00_clock_10_n02708093_275.JPEG
cornet-s,3,61,NaN,bear,oven,0.00,2621_nse_dnn_0.00_oven_10_n04111531_13128.JPEG
cornet-s,3,62,NaN,oven,oven,0.00,2622_nse_dnn_0.00_oven_10_n04111531_5940.JPEG
cornet-s,3,63,NaN,oven,oven,0.00,2623_nse_dnn_0.00_oven_10_n04111531_22020.JPEG
cornet-s,3,64,NaN,oven,oven,0.00,2624_nse_dnn_0.00_oven_10_n04111531_6080.JPEG
cornet-s,3,65,NaN,truck,oven,0.00,2625_nse_dnn_0.00_oven_10_n04111531_9779.JPEG
cornet-s,3,66,NaN,elephant,oven,0.00,2626_nse_dnn_0.00_oven_10_n04111531_9805.JPEG
cornet-s,3,67,NaN,clock,oven,0.00,2627_nse_dnn_0.00_oven_10_n04111531_8537.JPEG
cornet-s,3,68,NaN,bottle,oven,0.00,2628_nse_dnn_0.00_oven_10_n04111531_10064.JPEG
cornet-s,3,69,NaN,oven,oven,0.00,2629_nse_dnn_0.00_oven_10_n04111531_9178.JPEG
cornet-s,3,70,NaN,chair,oven,0.00,2630_nse_dnn_0.00_oven_10_n04111531_4826.JPEG
cornet-s,3,71,NaN,chair,chair,0.00,2631_nse_dnn_0.00_chair_10_n04099969_39368.JPEG
cornet-s,3,72,NaN,chair,chair,0.00,2632_nse_dnn_0.00_chair_10_n03376595_3968.JPEG
cornet-s,3,73,NaN,chair,chair,0.00,2633_nse_dnn_0.00_chair_10_n04099969_7153.JPEG
cornet-s,3,74,NaN,chair,chair,0.00,2634_nse_dnn_0.00_chair_10_n03376595_15191.JPEG
cornet-s,3,75,NaN,chair,chair,0.00,2635_nse_dnn_0.00_chair_10_n04429376_19319.JPEG
cornet-s,3,76,NaN,chair,chair,0.00,2636_nse_dnn_0.00_chair_10_n03376595_1712.JPEG
cornet-s,3,77,NaN,chair,chair,0.00,2637_nse_dnn_0.00_chair_10_n02791124_5410.JPEG
cornet-s,3,78,NaN,chair,chair,0.00,2638_nse_dnn_0.00_chair_10_n02791124_14.JPEG
cornet-s,3,79,NaN,chair,chair,0.00,2639_nse_dnn_0.00_chair_10_n04099969_5524.JPEG
cornet-s,3,80,NaN,chair,chair,0.00,2640_nse_dnn_0.00_chair_10_n03376595_4234.JPEG
cornet-s,3,81,NaN,bear,bear,0.00,2641_nse_dnn_0.00_bear_10_n02132136_12198.JPEG
cornet-s,3,82,NaN,bear,bear,0.00,2642_nse_dnn_0.00_bear_10_n02134084_1022.JPEG
cornet-s,3,83,NaN,bear,bear,0.00,2643_nse_dnn_0.00_bear_10_n02132136_3981.JPEG
cornet-s,3,84,NaN,bear,bear,0.00,2644_nse_dnn_0.00_bear_10_n02133161_4617.JPEG
cornet-s,3,85,NaN,bear,bear,0.00,2645_nse_dnn_0.00_bear_10_n02134418_2660.JPEG
cornet-s,3,86,NaN,bear,bear,0.00,2646_nse_dnn_0.00_bear_10_n02133161_1222.JPEG
cornet-s,3,87,NaN,bear,bear,0.00,2647_nse_dnn_0.00_bear_10_n02134084_2953.JPEG
cornet-s,3,88,NaN,bear,bear,0.00,2648_nse_dnn_0.00_bear_10_n02134084_2516.JPEG
cornet-s,3,89,NaN,chair,bear,0.00,2649_nse_dnn_0.00_bear_10_n02134418_5231.JPEG
cornet-s,3,90,NaN,bear,bear,0.00,2650_nse_dnn_0.00_bear_10_n02134418_5219.JPEG
cornet-s,3,91,NaN,boat,boat,0.00,2651_nse_dnn_0.00_boat_10_n02951358_29325.JPEG
cornet-s,3,92,NaN,boat,boat,0.00,2652_nse_dnn_0.00_boat_10_n04612504_37165.JPEG
cornet-s,3,93,NaN,boat,boat,0.00,2653_nse_dnn_0.00_boat_10_n04612504_3327.JPEG
cornet-s,3,94,NaN,boat,boat,0.00,2654_nse_dnn_0.00_boat_10_n04273569_1728.JPEG
cornet-s,3,95,NaN,boat,boat,0.00,2655_nse_dnn_0.00_boat_10_n04612504_15562.JPEG
cornet-s,3,96,NaN,boat,boat,0.00,2656_nse_dnn_0.00_boat_10_n04612504_22588.JPEG
cornet-s,3,97,NaN,car,boat,0.00,2657_nse_dnn_0.00_boat_10_n02951358_15422.JPEG
cornet-s,3,98,NaN,chair,boat,0.00,2658_nse_dnn_0.00_boat_10_n02951358_12147.JPEG
cornet-s,3,99,NaN,boat,boat,0.00,2659_nse_dnn_0.00_boat_10_n04273569_4324.JPEG
cornet-s,3,100,NaN,boat,boat,0.00,2660_nse_dnn_0.00_boat_10_n03662601_20110.JPEG
cornet-s,3,101,NaN,elephant,cat,0.00,2661_nse_dnn_0.00_cat_10_n02125311_14922.JPEG
cornet-s,3,102,NaN,cat,cat,0.00,2662_nse_dnn_0.00_cat_10_n02123394_5835.JPEG
cornet-s,3,103,NaN,cat,cat,0.00,2663_nse_dnn_0.00_cat_10_n02123597_9079.JPEG
cornet-s,3,104,NaN,cat,cat,0.00,2664_nse_dnn_0.00_cat_10_n02123597_11138.JPEG
cornet-s,3,105,NaN,cat,cat,0.00,2665_nse_dnn_0.00_cat_10_n02123045_2143.JPEG
cornet-s,3,106,NaN,cat,cat,0.00,2666_nse_dnn_0.00_cat_10_n02124075_10750.JPEG
cornet-s,3,107,NaN,chair,cat,0.00,2667_nse_dnn_0.00_cat_10_n02125311_47725.JPEG
cornet-s,3,108,NaN,cat,cat,0.00,2668_nse_dnn_0.00_cat_10_n02123597_6917.JPEG
cornet-s,3,109,NaN,cat,cat,0.00,2669_nse_dnn_0.00_cat_10_n02125311_11476.JPEG
cornet-s,3,110,NaN,cat,cat,0.00,2670_nse_dnn_0.00_cat_10_n02123045_21134.JPEG
cornet-s,3,111,NaN,bottle,bottle,0.00,2671_nse_dnn_0.00_bottle_10_n03983396_10070.JPEG
cornet-s,3,112,NaN,bottle,bottle,0.00,2672_nse_dnn_0.00_bottle_10_n03983396_12954.JPEG
cornet-s,3,113,NaN,bottle,bottle,0.00,2673_nse_dnn_0.00_bottle_10_n04560804_15891.JPEG
cornet-s,3,114,NaN,bottle,bottle,0.00,2674_nse_dnn_0.00_bottle_10_n04560804_15324.JPEG
cornet-s,3,115,NaN,bottle,bottle,0.00,2675_nse_dnn_0.00_bottle_10_n04560804_31110.JPEG
cornet-s,3,116,NaN,bottle,bottle,0.00,2676_nse_dnn_0.00_bottle_10_n04557648_3320.JPEG
cornet-s,3,117,NaN,bottle,bottle,0.00,2677_nse_dnn_0.00_bottle_10_n04579145_5863.JPEG
cornet-s,3,118,NaN,bottle,bottle,0.00,2678_nse_dnn_0.00_bottle_10_n02823428_4217.JPEG
cornet-s,3,119,NaN,clock,bottle,0.00,2679_nse_dnn_0.00_bottle_10_n04591713_956.JPEG
cornet-s,3,120,NaN,bottle,bottle,0.00,2680_nse_dnn_0.00_bottle_10_n04579145_268.JPEG
cornet-s,3,121,NaN,truck,truck,0.00,2681_nse_dnn_0.00_truck_10_n04467665_90211.JPEG
cornet-s,3,122,NaN,truck,truck,0.00,2682_nse_dnn_0.00_truck_10_n03417042_201.JPEG
cornet-s,3,123,NaN,truck,truck,0.00,2683_nse_dnn_0.00_truck_10_n03417042_15898.JPEG
cornet-s,3,124,NaN,truck,truck,0.00,2684_nse_dnn_0.00_truck_10_n03417042_3216.JPEG
cornet-s,3,125,NaN,truck,truck,0.00,2685_nse_dnn_0.00_truck_10_n04467665_3038.JPEG
cornet-s,3,126,NaN,truck,truck,0.00,2686_nse_dnn_0.00_truck_10_n03796401_4868.JPEG
cornet-s,3,127,NaN,truck,truck,0.00,2687_nse_dnn_0.00_truck_10_n03796401_23501.JPEG
cornet-s,3,128,NaN,truck,truck,0.00,2688_nse_dnn_0.00_truck_10_n03417042_7521.JPEG
cornet-s,3,129,NaN,truck,truck,0.00,2689_nse_dnn_0.00_truck_10_n03417042_10362.JPEG
cornet-s,3,130,NaN,truck,truck,0.00,2690_nse_dnn_0.00_truck_10_n03417042_9132.JPEG
cornet-s,3,131,NaN,car,car,0.00,2691_nse_dnn_0.00_car_10_n02814533_16473.JPEG
cornet-s,3,132,NaN,car,car,0.00,2692_nse_dnn_0.00_car_10_n02814533_77309.JPEG
cornet-s,3,133,NaN,car,car,0.00,2693_nse_dnn_0.00_car_10_n03100240_8503.JPEG
cornet-s,3,134,NaN,car,car,0.00,2694_nse_dnn_0.00_car_10_n03100240_203.JPEG
cornet-s,3,135,NaN,car,car,0.00,2695_nse_dnn_0.00_car_10_n03100240_2123.JPEG
cornet-s,3,136,NaN,car,car,0.00,2696_nse_dnn_0.00_car_10_n04285008_12138.JPEG
cornet-s,3,137,NaN,car,car,0.00,2697_nse_dnn_0.00_car_10_n04285008_13255.JPEG
cornet-s,3,138,NaN,car,car,0.00,2698_nse_dnn_0.00_car_10_n03100240_960.JPEG
cornet-s,3,139,NaN,car,car,0.00,2699_nse_dnn_0.00_car_10_n02814533_47406.JPEG
cornet-s,3,140,NaN,car,car,0.00,2700_nse_dnn_0.00_car_10_n02814533_85636.JPEG
cornet-s,3,141,NaN,bird,bird,0.00,2701_nse_dnn_0.00_bird_10_n01820546_3271.JPEG
cornet-s,3,142,NaN,bird,bird,0.00,2702_nse_dnn_0.00_bird_10_n01560419_18452.JPEG
cornet-s,3,143,NaN,bird,bird,0.00,2703_nse_dnn_0.00_bird_10_n01616318_2192.JPEG
cornet-s,3,144,NaN,bird,bird,0.00,2704_nse_dnn_0.00_bird_10_n01796340_4005.JPEG
cornet-s,3,145,NaN,bird,bird,0.00,2705_nse_dnn_0.00_bird_10_n01582220_19217.JPEG
cornet-s,3,146,NaN,bird,bird,0.00,2706_nse_dnn_0.00_bird_10_n01796340_13620.JPEG
cornet-s,3,147,NaN,bird,bird,0.00,2707_nse_dnn_0.00_bird_10_n01537544_24791.JPEG
cornet-s,3,148,NaN,bird,bird,0.00,2708_nse_dnn_0.00_bird_10_n02002556_6005.JPEG
cornet-s,3,149,NaN,bird,bird,0.00,2709_nse_dnn_0.00_bird_10_n02025239_6840.JPEG
cornet-s,3,150,NaN,bird,bird,0.00,2710_nse_dnn_0.00_bird_10_n02002724_5335.JPEG
cornet-s,3,151,NaN,dog,dog,0.00,2711_nse_dnn_0.00_dog_10_n02106550_1366.JPEG
cornet-s,3,152,NaN,dog,dog,0.00,2712_nse_dnn_0.00_dog_10_n02089078_831.JPEG
cornet-s,3,153,NaN,dog,dog,0.00,2713_nse_dnn_0.00_dog_10_n02093647_3705.JPEG
cornet-s,3,154,NaN,dog,dog,0.00,2714_nse_dnn_0.00_dog_10_n02094258_3167.JPEG
cornet-s,3,155,NaN,dog,dog,0.00,2715_nse_dnn_0.00_dog_10_n02100236_9612.JPEG
cornet-s,3,156,NaN,chair,dog,0.00,2716_nse_dnn_0.00_dog_10_n02088632_490.JPEG
cornet-s,3,157,NaN,dog,dog,0.00,2717_nse_dnn_0.00_dog_10_n02102480_4060.JPEG
cornet-s,3,158,NaN,dog,dog,0.00,2718_nse_dnn_0.00_dog_10_n02088364_13478.JPEG
cornet-s,3,159,NaN,dog,dog,0.00,2719_nse_dnn_0.00_dog_10_n02099267_6255.JPEG
cornet-s,3,160,NaN,dog,dog,0.00,2720_nse_dnn_0.00_dog_10_n02102973_23.JPEG
cornet-s,3,161,NaN,clock,knife,0.03,2721_nse_dnn_0.03_knife_10_n03041632_20697.JPEG
cornet-s,3,162,NaN,knife,knife,0.03,2722_nse_dnn_0.03_knife_10_n03041632_14883.JPEG
cornet-s,3,163,NaN,bicycle,knife,0.03,2723_nse_dnn_0.03_knife_10_n03041632_23678.JPEG
cornet-s,3,164,NaN,cat,knife,0.03,2724_nse_dnn_0.03_knife_10_n03041632_85416.JPEG
cornet-s,3,165,NaN,chair,knife,0.03,2725_nse_dnn_0.03_knife_10_n03041632_49363.JPEG
cornet-s,3,166,NaN,clock,knife,0.03,2726_nse_dnn_0.03_knife_10_n03041632_90125.JPEG
cornet-s,3,167,NaN,knife,knife,0.03,2727_nse_dnn_0.03_knife_10_n03041632_7495.JPEG
cornet-s,3,168,NaN,knife,knife,0.03,2728_nse_dnn_0.03_knife_10_n03041632_24646.JPEG
cornet-s,3,169,NaN,knife,knife,0.03,2729_nse_dnn_0.03_knife_10_n03041632_4808.JPEG
cornet-s,3,170,NaN,knife,knife,0.03,2730_nse_dnn_0.03_knife_10_n03041632_42841.JPEG
cornet-s,3,171,NaN,chair,keyboard,0.03,2731_nse_dnn_0.03_keyboard_10_n03085013_3192.JPEG
cornet-s,3,172,NaN,keyboard,keyboard,0.03,2732_nse_dnn_0.03_keyboard_10_n04505470_4002.JPEG
cornet-s,3,173,NaN,keyboard,keyboard,0.03,2733_nse_dnn_0.03_keyboard_10_n04505470_1649.JPEG
cornet-s,3,174,NaN,keyboard,keyboard,0.03,2734_nse_dnn_0.03_keyboard_10_n04505470_4362.JPEG
cornet-s,3,175,NaN,keyboard,keyboard,0.03,2735_nse_dnn_0.03_keyboard_10_n03085013_805.JPEG
cornet-s,3,176,NaN,keyboard,keyboard,0.03,2736_nse_dnn_0.03_keyboard_10_n04505470_2868.JPEG
cornet-s,3,177,NaN,keyboard,keyboard,0.03,2737_nse_dnn_0.03_keyboard_10_n03085013_31266.JPEG
cornet-s,3,178,NaN,keyboard,keyboard,0.03,2738_nse_dnn_0.03_keyboard_10_n04505470_659.JPEG
cornet-s,3,179,NaN,keyboard,keyboard,0.03,2739_nse_dnn_0.03_keyboard_10_n03085013_20822.JPEG
cornet-s,3,180,NaN,keyboard,keyboard,0.03,2740_nse_dnn_0.03_keyboard_10_n04505470_5042.JPEG
cornet-s,3,181,NaN,truck,elephant,0.03,2741_nse_dnn_0.03_elephant_10_n02504013_3197.JPEG
cornet-s,3,182,NaN,elephant,elephant,0.03,2742_nse_dnn_0.03_elephant_10_n02504458_7377.JPEG
cornet-s,3,183,NaN,elephant,elephant,0.03,2743_nse_dnn_0.03_elephant_10_n02504013_8883.JPEG
cornet-s,3,184,NaN,elephant,elephant,0.03,2744_nse_dnn_0.03_elephant_10_n02504013_4071.JPEG
cornet-s,3,185,NaN,elephant,elephant,0.03,2745_nse_dnn_0.03_elephant_10_n02504013_1492.JPEG
cornet-s,3,186,NaN,elephant,elephant,0.03,2746_nse_dnn_0.03_elephant_10_n02504013_4136.JPEG
cornet-s,3,187,NaN,elephant,elephant,0.03,2747_nse_dnn_0.03_elephant_10_n02504013_9978.JPEG
cornet-s,3,188,NaN,elephant,elephant,0.03,2748_nse_dnn_0.03_elephant_10_n02504458_5346.JPEG
cornet-s,3,189,NaN,boat,elephant,0.03,2749_nse_dnn_0.03_elephant_10_n02504458_6399.JPEG
cornet-s,3,190,NaN,elephant,elephant,0.03,2750_nse_dnn_0.03_elephant_10_n02504013_3169.JPEG
cornet-s,3,191,NaN,bicycle,bicycle,0.03,2751_nse_dnn_0.03_bicycle_10_n03792782_19362.JPEG
cornet-s,3,192,NaN,bicycle,bicycle,0.03,2752_nse_dnn_0.03_bicycle_10_n03792782_1853.JPEG
cornet-s,3,193,NaN,bicycle,bicycle,0.03,2753_nse_dnn_0.03_bicycle_10_n03792782_16896.JPEG
cornet-s,3,194,NaN,bicycle,bicycle,0.03,2754_nse_dnn_0.03_bicycle_10_n02835271_3812.JPEG
cornet-s,3,195,NaN,bicycle,bicycle,0.03,2755_nse_dnn_0.03_bicycle_10_n03792782_9709.JPEG
cornet-s,3,196,NaN,bicycle,bicycle,0.03,2756_nse_dnn_0.03_bicycle_10_n03792782_242.JPEG
cornet-s,3,197,NaN,bicycle,bicycle,0.03,2757_nse_dnn_0.03_bicycle_10_n02835271_12945.JPEG
cornet-s,3,198,NaN,bicycle,bicycle,0.03,2758_nse_dnn_0.03_bicycle_10_n03792782_22908.JPEG
cornet-s,3,199,NaN,chair,bicycle,0.03,2759_nse_dnn_0.03_bicycle_10_n03792782_8329.JPEG
cornet-s,3,200,NaN,bicycle,bicycle,0.03,2760_nse_dnn_0.03_bicycle_10_n03792782_6720.JPEG
cornet-s,3,201,NaN,airplane,airplane,0.03,2761_nse_dnn_0.03_airplane_10_n02690373_17731.JPEG
cornet-s,3,202,NaN,airplane,airplane,0.03,2762_nse_dnn_0.03_airplane_10_n02690373_5382.JPEG
cornet-s,3,203,NaN,airplane,airplane,0.03,2763_nse_dnn_0.03_airplane_10_n02690373_2569.JPEG
cornet-s,3,204,NaN,airplane,airplane,0.03,2764_nse_dnn_0.03_airplane_10_n02690373_10404.JPEG
cornet-s,3,205,NaN,airplane,airplane,0.03,2765_nse_dnn_0.03_airplane_10_n02690373_2131.JPEG
cornet-s,3,206,NaN,airplane,airplane,0.03,2766_nse_dnn_0.03_airplane_10_n02690373_3726.JPEG
cornet-s,3,207,NaN,airplane,airplane,0.03,2767_nse_dnn_0.03_airplane_10_n02690373_10210.JPEG
cornet-s,3,208,NaN,airplane,airplane,0.03,2768_nse_dnn_0.03_airplane_10_n02690373_1696.JPEG
cornet-s,3,209,NaN,airplane,airplane,0.03,2769_nse_dnn_0.03_airplane_10_n02690373_4784.JPEG
cornet-s,3,210,NaN,airplane,airplane,0.03,2770_nse_dnn_0.03_airplane_10_n02690373_1416.JPEG
cornet-s,3,211,NaN,clock,clock,0.03,2771_nse_dnn_0.03_clock_10_n03196217_3194.JPEG
cornet-s,3,212,NaN,clock,clock,0.03,2772_nse_dnn_0.03_clock_10_n04548280_9032.JPEG
cornet-s,3,213,NaN,airplane,clock,0.03,2773_nse_dnn_0.03_clock_10_n03196217_7141.JPEG
cornet-s,3,214,NaN,clock,clock,0.03,2774_nse_dnn_0.03_clock_10_n02708093_3305.JPEG
cornet-s,3,215,NaN,bottle,clock,0.03,2775_nse_dnn_0.03_clock_10_n04548280_5405.JPEG
cornet-s,3,216,NaN,clock,clock,0.03,2776_nse_dnn_0.03_clock_10_n04548280_22406.JPEG
cornet-s,3,217,NaN,clock,clock,0.03,2777_nse_dnn_0.03_clock_10_n03196217_11714.JPEG
cornet-s,3,218,NaN,clock,clock,0.03,2778_nse_dnn_0.03_clock_10_n02708093_7475.JPEG
cornet-s,3,219,NaN,clock,clock,0.03,2779_nse_dnn_0.03_clock_10_n02708093_462.JPEG
cornet-s,3,220,NaN,clock,clock,0.03,2780_nse_dnn_0.03_clock_10_n03196217_300.JPEG
cornet-s,3,221,NaN,chair,oven,0.03,2781_nse_dnn_0.03_oven_10_n04111531_21869.JPEG
cornet-s,3,222,NaN,knife,oven,0.03,2782_nse_dnn_0.03_oven_10_n04111531_13625.JPEG
cornet-s,3,223,NaN,bottle,oven,0.03,2783_nse_dnn_0.03_oven_10_n04111531_6412.JPEG
cornet-s,3,224,NaN,oven,oven,0.03,2784_nse_dnn_0.03_oven_10_n04111531_7329.JPEG
cornet-s,3,225,NaN,truck,oven,0.03,2785_nse_dnn_0.03_oven_10_n04111531_2331.JPEG
cornet-s,3,226,NaN,oven,oven,0.03,2786_nse_dnn_0.03_oven_10_n04111531_22413.JPEG
cornet-s,3,227,NaN,oven,oven,0.03,2787_nse_dnn_0.03_oven_10_n04111531_12450.JPEG
cornet-s,3,228,NaN,chair,oven,0.03,2788_nse_dnn_0.03_oven_10_n04111531_6489.JPEG
cornet-s,3,229,NaN,airplane,oven,0.03,2789_nse_dnn_0.03_oven_10_n04111531_15492.JPEG
cornet-s,3,230,NaN,knife,oven,0.03,2790_nse_dnn_0.03_oven_10_n04111531_5473.JPEG
cornet-s,3,231,NaN,chair,chair,0.03,2791_nse_dnn_0.03_chair_10_n04429376_24903.JPEG
cornet-s,3,232,NaN,chair,chair,0.03,2792_nse_dnn_0.03_chair_10_n02791124_14021.JPEG
cornet-s,3,233,NaN,chair,chair,0.03,2793_nse_dnn_0.03_chair_10_n03376595_9116.JPEG
cornet-s,3,234,NaN,chair,chair,0.03,2794_nse_dnn_0.03_chair_10_n03376595_10382.JPEG
cornet-s,3,235,NaN,chair,chair,0.03,2795_nse_dnn_0.03_chair_10_n04099969_8873.JPEG
cornet-s,3,236,NaN,chair,chair,0.03,2796_nse_dnn_0.03_chair_10_n04099969_14172.JPEG
cornet-s,3,237,NaN,chair,chair,0.03,2797_nse_dnn_0.03_chair_10_n02791124_16190.JPEG
cornet-s,3,238,NaN,chair,chair,0.03,2798_nse_dnn_0.03_chair_10_n04429376_5337.JPEG
cornet-s,3,239,NaN,chair,chair,0.03,2799_nse_dnn_0.03_chair_10_n04429376_30621.JPEG
cornet-s,3,240,NaN,chair,chair,0.03,2800_nse_dnn_0.03_chair_10_n03376595_8452.JPEG
cornet-s,3,241,NaN,elephant,bear,0.03,2801_nse_dnn_0.03_bear_10_n02134418_9848.JPEG
cornet-s,3,242,NaN,bear,bear,0.03,2802_nse_dnn_0.03_bear_10_n02133161_5642.JPEG
cornet-s,3,243,NaN,bear,bear,0.03,2803_nse_dnn_0.03_bear_10_n02132136_5135.JPEG
cornet-s,3,244,NaN,bear,bear,0.03,2804_nse_dnn_0.03_bear_10_n02132136_228.JPEG
cornet-s,3,245,NaN,bear,bear,0.03,2805_nse_dnn_0.03_bear_10_n02132136_651.JPEG
cornet-s,3,246,NaN,bear,bear,0.03,2806_nse_dnn_0.03_bear_10_n02132136_17696.JPEG
cornet-s,3,247,NaN,bear,bear,0.03,2807_nse_dnn_0.03_bear_10_n02134084_3242.JPEG
cornet-s,3,248,NaN,bear,bear,0.03,2808_nse_dnn_0.03_bear_10_n02132136_2567.JPEG
cornet-s,3,249,NaN,dog,bear,0.03,2809_nse_dnn_0.03_bear_10_n02132136_4403.JPEG
cornet-s,3,250,NaN,cat,bear,0.03,2810_nse_dnn_0.03_bear_10_n02134418_5380.JPEG
cornet-s,3,251,NaN,boat,boat,0.03,2811_nse_dnn_0.03_boat_10_n02951358_12866.JPEG
cornet-s,3,252,NaN,boat,boat,0.03,2812_nse_dnn_0.03_boat_10_n02951358_13352.JPEG
cornet-s,3,253,NaN,boat,boat,0.03,2813_nse_dnn_0.03_boat_10_n03662601_15763.JPEG
cornet-s,3,254,NaN,car,boat,0.03,2814_nse_dnn_0.03_boat_10_n02951358_10162.JPEG
cornet-s,3,255,NaN,boat,boat,0.03,2815_nse_dnn_0.03_boat_10_n04273569_6824.JPEG
cornet-s,3,256,NaN,boat,boat,0.03,2816_nse_dnn_0.03_boat_10_n02951358_1360.JPEG
cornet-s,3,257,NaN,boat,boat,0.03,2817_nse_dnn_0.03_boat_10_n02951358_31441.JPEG
cornet-s,3,258,NaN,boat,boat,0.03,2818_nse_dnn_0.03_boat_10_n02951358_12368.JPEG
cornet-s,3,259,NaN,truck,boat,0.03,2819_nse_dnn_0.03_boat_10_n02951358_15926.JPEG
cornet-s,3,260,NaN,boat,boat,0.03,2820_nse_dnn_0.03_boat_10_n03344393_2843.JPEG
cornet-s,3,261,NaN,boat,cat,0.03,2821_nse_dnn_0.03_cat_10_n02123394_9043.JPEG
cornet-s,3,262,NaN,cat,cat,0.03,2822_nse_dnn_0.03_cat_10_n02124075_271.JPEG
cornet-s,3,263,NaN,cat,cat,0.03,2823_nse_dnn_0.03_cat_10_n02123597_3853.JPEG
cornet-s,3,264,NaN,dog,cat,0.03,2824_nse_dnn_0.03_cat_10_n02125311_7883.JPEG
cornet-s,3,265,NaN,elephant,cat,0.03,2825_nse_dnn_0.03_cat_10_n02125311_77036.JPEG
cornet-s,3,266,NaN,cat,cat,0.03,2826_nse_dnn_0.03_cat_10_n02123394_3152.JPEG
cornet-s,3,267,NaN,cat,cat,0.03,2827_nse_dnn_0.03_cat_10_n02123159_6526.JPEG
cornet-s,3,268,NaN,cat,cat,0.03,2828_nse_dnn_0.03_cat_10_n02125311_2622.JPEG
cornet-s,3,269,NaN,clock,cat,0.03,2829_nse_dnn_0.03_cat_10_n02124075_7065.JPEG
cornet-s,3,270,NaN,cat,cat,0.03,2830_nse_dnn_0.03_cat_10_n02123159_5126.JPEG
cornet-s,3,271,NaN,knife,bottle,0.03,2831_nse_dnn_0.03_bottle_10_n02823428_14415.JPEG
cornet-s,3,272,NaN,chair,bottle,0.03,2832_nse_dnn_0.03_bottle_10_n04560804_121.JPEG
cornet-s,3,273,NaN,bottle,bottle,0.03,2833_nse_dnn_0.03_bottle_10_n04557648_2511.JPEG
cornet-s,3,274,NaN,bottle,bottle,0.03,2834_nse_dnn_0.03_bottle_10_n03983396_486.JPEG
cornet-s,3,275,NaN,bottle,bottle,0.03,2835_nse_dnn_0.03_bottle_10_n04557648_8507.JPEG
cornet-s,3,276,NaN,keyboard,bottle,0.03,2836_nse_dnn_0.03_bottle_10_n04591713_6101.JPEG
cornet-s,3,277,NaN,bottle,bottle,0.03,2837_nse_dnn_0.03_bottle_10_n03937543_10509.JPEG
cornet-s,3,278,NaN,chair,bottle,0.03,2838_nse_dnn_0.03_bottle_10_n04591713_3502.JPEG
cornet-s,3,279,NaN,bottle,bottle,0.03,2839_nse_dnn_0.03_bottle_10_n03983396_5791.JPEG
cornet-s,3,280,NaN,bottle,bottle,0.03,2840_nse_dnn_0.03_bottle_10_n02823428_5915.JPEG
cornet-s,3,281,NaN,chair,truck,0.03,2841_nse_dnn_0.03_truck_10_n03796401_3148.JPEG
cornet-s,3,282,NaN,truck,truck,0.03,2842_nse_dnn_0.03_truck_10_n03796401_8575.JPEG
cornet-s,3,283,NaN,truck,truck,0.03,2843_nse_dnn_0.03_truck_10_n03417042_17623.JPEG
cornet-s,3,284,NaN,truck,truck,0.03,2844_nse_dnn_0.03_truck_10_n03417042_3192.JPEG
cornet-s,3,285,NaN,truck,truck,0.03,2845_nse_dnn_0.03_truck_10_n03417042_5362.JPEG
cornet-s,3,286,NaN,truck,truck,0.03,2846_nse_dnn_0.03_truck_10_n03417042_29849.JPEG
cornet-s,3,287,NaN,truck,truck,0.03,2847_nse_dnn_0.03_truck_10_n03417042_10858.JPEG
cornet-s,3,288,NaN,truck,truck,0.03,2848_nse_dnn_0.03_truck_10_n03796401_19777.JPEG
cornet-s,3,289,NaN,truck,truck,0.03,2849_nse_dnn_0.03_truck_10_n03417042_19905.JPEG
cornet-s,3,290,NaN,truck,truck,0.03,2850_nse_dnn_0.03_truck_10_n03796401_14104.JPEG
cornet-s,3,291,NaN,car,car,0.03,2851_nse_dnn_0.03_car_10_n02814533_52045.JPEG
cornet-s,3,292,NaN,car,car,0.03,2852_nse_dnn_0.03_car_10_n03100240_16210.JPEG
cornet-s,3,293,NaN,car,car,0.03,2853_nse_dnn_0.03_car_10_n02814533_33360.JPEG
cornet-s,3,294,NaN,car,car,0.03,2854_nse_dnn_0.03_car_10_n02814533_6593.JPEG
cornet-s,3,295,NaN,car,car,0.03,2855_nse_dnn_0.03_car_10_n02814533_82616.JPEG
cornet-s,3,296,NaN,car,car,0.03,2856_nse_dnn_0.03_car_10_n02814533_31793.JPEG
cornet-s,3,297,NaN,car,car,0.03,2857_nse_dnn_0.03_car_10_n03100240_1093.JPEG
cornet-s,3,298,NaN,car,car,0.03,2858_nse_dnn_0.03_car_10_n02814533_72805.JPEG
cornet-s,3,299,NaN,car,car,0.03,2859_nse_dnn_0.03_car_10_n03100240_3050.JPEG
cornet-s,3,300,NaN,car,car,0.03,2860_nse_dnn_0.03_car_10_n03100240_15009.JPEG
cornet-s,3,301,NaN,elephant,bird,0.03,2861_nse_dnn_0.03_bird_10_n01820546_3250.JPEG
cornet-s,3,302,NaN,bottle,bird,0.03,2862_nse_dnn_0.03_bird_10_n01530575_2445.JPEG
cornet-s,3,303,NaN,bird,bird,0.03,2863_nse_dnn_0.03_bird_10_n01797886_9969.JPEG
cornet-s,3,304,NaN,bird,bird,0.03,2864_nse_dnn_0.03_bird_10_n02037110_2524.JPEG
cornet-s,3,305,NaN,airplane,bird,0.03,2865_nse_dnn_0.03_bird_10_n01560419_7355.JPEG
cornet-s,3,306,NaN,bird,bird,0.03,2866_nse_dnn_0.03_bird_10_n02017213_7586.JPEG
cornet-s,3,307,NaN,bottle,bird,0.03,2867_nse_dnn_0.03_bird_10_n01614925_4089.JPEG
cornet-s,3,308,NaN,elephant,bird,0.03,2868_nse_dnn_0.03_bird_10_n01622779_5129.JPEG
cornet-s,3,309,NaN,elephant,bird,0.03,2869_nse_dnn_0.03_bird_10_n01601694_11581.JPEG
cornet-s,3,310,NaN,knife,bird,0.03,2870_nse_dnn_0.03_bird_10_n01833805_7415.JPEG
cornet-s,3,311,NaN,chair,dog,0.03,2871_nse_dnn_0.03_dog_10_n02100877_4386.JPEG
cornet-s,3,312,NaN,keyboard,dog,0.03,2872_nse_dnn_0.03_dog_10_n02091134_1373.JPEG
cornet-s,3,313,NaN,cat,dog,0.03,2873_nse_dnn_0.03_dog_10_n02100735_7977.JPEG
cornet-s,3,314,NaN,dog,dog,0.03,2874_nse_dnn_0.03_dog_10_n02101006_7219.JPEG
cornet-s,3,315,NaN,dog,dog,0.03,2875_nse_dnn_0.03_dog_10_n02110063_11668.JPEG
cornet-s,3,316,NaN,dog,dog,0.03,2876_nse_dnn_0.03_dog_10_n02101006_5800.JPEG
cornet-s,3,317,NaN,dog,dog,0.03,2877_nse_dnn_0.03_dog_10_n02100583_27824.JPEG
cornet-s,3,318,NaN,cat,dog,0.03,2878_nse_dnn_0.03_dog_10_n02105251_7409.JPEG
cornet-s,3,319,NaN,dog,dog,0.03,2879_nse_dnn_0.03_dog_10_n02107142_8456.JPEG
cornet-s,3,320,NaN,dog,dog,0.03,2880_nse_dnn_0.03_dog_10_n02101556_6632.JPEG
cornet-s,3,321,NaN,airplane,knife,0.05,2881_nse_dnn_0.05_knife_10_n03041632_55140.JPEG
cornet-s,3,322,NaN,knife,knife,0.05,2882_nse_dnn_0.05_knife_10_n03041632_39342.JPEG
cornet-s,3,323,NaN,clock,knife,0.05,2883_nse_dnn_0.05_knife_10_n03041632_15250.JPEG
cornet-s,3,324,NaN,knife,knife,0.05,2884_nse_dnn_0.05_knife_10_n03041632_17100.JPEG
cornet-s,3,325,NaN,knife,knife,0.05,2885_nse_dnn_0.05_knife_10_n03041632_41310.JPEG
cornet-s,3,326,NaN,boat,knife,0.05,2886_nse_dnn_0.05_knife_10_n03041632_5727.JPEG
cornet-s,3,327,NaN,boat,knife,0.05,2887_nse_dnn_0.05_knife_10_n03041632_14801.JPEG
cornet-s,3,328,NaN,knife,knife,0.05,2888_nse_dnn_0.05_knife_10_n03041632_4044.JPEG
cornet-s,3,329,NaN,boat,knife,0.05,2889_nse_dnn_0.05_knife_10_n03041632_33198.JPEG
cornet-s,3,330,NaN,knife,knife,0.05,2890_nse_dnn_0.05_knife_10_n03041632_7380.JPEG
cornet-s,3,331,NaN,keyboard,keyboard,0.05,2891_nse_dnn_0.05_keyboard_10_n03085013_23271.JPEG
cornet-s,3,332,NaN,keyboard,keyboard,0.05,2892_nse_dnn_0.05_keyboard_10_n04505470_3024.JPEG
cornet-s,3,333,NaN,keyboard,keyboard,0.05,2893_nse_dnn_0.05_keyboard_10_n04505470_2320.JPEG
cornet-s,3,334,NaN,keyboard,keyboard,0.05,2894_nse_dnn_0.05_keyboard_10_n04505470_4173.JPEG
cornet-s,3,335,NaN,truck,keyboard,0.05,2895_nse_dnn_0.05_keyboard_10_n04505470_4595.JPEG
cornet-s,3,336,NaN,chair,keyboard,0.05,2896_nse_dnn_0.05_keyboard_10_n03085013_22494.JPEG
cornet-s,3,337,NaN,keyboard,keyboard,0.05,2897_nse_dnn_0.05_keyboard_10_n03085013_20849.JPEG
cornet-s,3,338,NaN,keyboard,keyboard,0.05,2898_nse_dnn_0.05_keyboard_10_n04505470_4357.JPEG
cornet-s,3,339,NaN,airplane,keyboard,0.05,2899_nse_dnn_0.05_keyboard_10_n03085013_22351.JPEG
cornet-s,3,340,NaN,knife,keyboard,0.05,2900_nse_dnn_0.05_keyboard_10_n03085013_23843.JPEG
cornet-s,3,341,NaN,elephant,elephant,0.05,2901_nse_dnn_0.05_elephant_10_n02504013_2370.JPEG
cornet-s,3,342,NaN,elephant,elephant,0.05,2902_nse_dnn_0.05_elephant_10_n02504013_4436.JPEG
cornet-s,3,343,NaN,elephant,elephant,0.05,2903_nse_dnn_0.05_elephant_10_n02504458_4997.JPEG
cornet-s,3,344,NaN,chair,elephant,0.05,2904_nse_dnn_0.05_elephant_10_n02504013_4531.JPEG
cornet-s,3,345,NaN,elephant,elephant,0.05,2905_nse_dnn_0.05_elephant_10_n02504013_9983.JPEG
cornet-s,3,346,NaN,elephant,elephant,0.05,2906_nse_dnn_0.05_elephant_10_n02504013_5237.JPEG
cornet-s,3,347,NaN,elephant,elephant,0.05,2907_nse_dnn_0.05_elephant_10_n02504458_4580.JPEG
cornet-s,3,348,NaN,boat,elephant,0.05,2908_nse_dnn_0.05_elephant_10_n02504013_10310.JPEG
cornet-s,3,349,NaN,elephant,elephant,0.05,2909_nse_dnn_0.05_elephant_10_n02504013_5918.JPEG
cornet-s,3,350,NaN,elephant,elephant,0.05,2910_nse_dnn_0.05_elephant_10_n02504458_7857.JPEG
cornet-s,3,351,NaN,bicycle,bicycle,0.05,2911_nse_dnn_0.05_bicycle_10_n03792782_8271.JPEG
cornet-s,3,352,NaN,bicycle,bicycle,0.05,2912_nse_dnn_0.05_bicycle_10_n02835271_8098.JPEG
cornet-s,3,353,NaN,bicycle,bicycle,0.05,2913_nse_dnn_0.05_bicycle_10_n03792782_1747.JPEG
cornet-s,3,354,NaN,bicycle,bicycle,0.05,2914_nse_dnn_0.05_bicycle_10_n02835271_5065.JPEG
cornet-s,3,355,NaN,bicycle,bicycle,0.05,2915_nse_dnn_0.05_bicycle_10_n02835271_848.JPEG
cornet-s,3,356,NaN,bicycle,bicycle,0.05,2916_nse_dnn_0.05_bicycle_10_n02835271_13644.JPEG
cornet-s,3,357,NaN,bicycle,bicycle,0.05,2917_nse_dnn_0.05_bicycle_10_n03792782_51149.JPEG
cornet-s,3,358,NaN,bicycle,bicycle,0.05,2918_nse_dnn_0.05_bicycle_10_n02835271_7426.JPEG
cornet-s,3,359,NaN,airplane,bicycle,0.05,2919_nse_dnn_0.05_bicycle_10_n03792782_10655.JPEG
cornet-s,3,360,NaN,bicycle,bicycle,0.05,2920_nse_dnn_0.05_bicycle_10_n02835271_2904.JPEG
cornet-s,3,361,NaN,clock,airplane,0.05,2921_nse_dnn_0.05_airplane_10_n02690373_7698.JPEG
cornet-s,3,362,NaN,airplane,airplane,0.05,2922_nse_dnn_0.05_airplane_10_n02690373_1381.JPEG
cornet-s,3,363,NaN,airplane,airplane,0.05,2923_nse_dnn_0.05_airplane_10_n02690373_1797.JPEG
cornet-s,3,364,NaN,airplane,airplane,0.05,2924_nse_dnn_0.05_airplane_10_n02690373_6676.JPEG
cornet-s,3,365,NaN,airplane,airplane,0.05,2925_nse_dnn_0.05_airplane_10_n02690373_3377.JPEG
cornet-s,3,366,NaN,airplane,airplane,0.05,2926_nse_dnn_0.05_airplane_10_n02690373_8521.JPEG
cornet-s,3,367,NaN,airplane,airplane,0.05,2927_nse_dnn_0.05_airplane_10_n02690373_5729.JPEG
cornet-s,3,368,NaN,airplane,airplane,0.05,2928_nse_dnn_0.05_airplane_10_n02690373_20011.JPEG
cornet-s,3,369,NaN,airplane,airplane,0.05,2929_nse_dnn_0.05_airplane_10_n02690373_8791.JPEG
cornet-s,3,370,NaN,airplane,airplane,0.05,2930_nse_dnn_0.05_airplane_10_n02690373_3712.JPEG
cornet-s,3,371,NaN,clock,clock,0.05,2931_nse_dnn_0.05_clock_10_n02708093_870.JPEG
cornet-s,3,372,NaN,clock,clock,0.05,2932_nse_dnn_0.05_clock_10_n03196217_10812.JPEG
cornet-s,3,373,NaN,bottle,clock,0.05,2933_nse_dnn_0.05_clock_10_n03196217_3689.JPEG
cornet-s,3,374,NaN,clock,clock,0.05,2934_nse_dnn_0.05_clock_10_n04548280_5484.JPEG
cornet-s,3,375,NaN,clock,clock,0.05,2935_nse_dnn_0.05_clock_10_n04548280_4358.JPEG
cornet-s,3,376,NaN,clock,clock,0.05,2936_nse_dnn_0.05_clock_10_n04548280_6126.JPEG
cornet-s,3,377,NaN,clock,clock,0.05,2937_nse_dnn_0.05_clock_10_n02708093_699.JPEG
cornet-s,3,378,NaN,clock,clock,0.05,2938_nse_dnn_0.05_clock_10_n02708093_3191.JPEG
cornet-s,3,379,NaN,clock,clock,0.05,2939_nse_dnn_0.05_clock_10_n04548280_1440.JPEG
cornet-s,3,380,NaN,clock,clock,0.05,2940_nse_dnn_0.05_clock_10_n04548280_2436.JPEG
cornet-s,3,381,NaN,chair,oven,0.05,2941_nse_dnn_0.05_oven_10_n04111531_6903.JPEG
cornet-s,3,382,NaN,airplane,oven,0.05,2942_nse_dnn_0.05_oven_10_n04111531_7130.JPEG
cornet-s,3,383,NaN,clock,oven,0.05,2943_nse_dnn_0.05_oven_10_n04111531_2670.JPEG
cornet-s,3,384,NaN,chair,oven,0.05,2944_nse_dnn_0.05_oven_10_n04111531_5171.JPEG
cornet-s,3,385,NaN,clock,oven,0.05,2945_nse_dnn_0.05_oven_10_n04111531_13542.JPEG
cornet-s,3,386,NaN,boat,oven,0.05,2946_nse_dnn_0.05_oven_10_n04111531_6628.JPEG
cornet-s,3,387,NaN,boat,oven,0.05,2947_nse_dnn_0.05_oven_10_n04111531_6454.JPEG
cornet-s,3,388,NaN,cat,oven,0.05,2948_nse_dnn_0.05_oven_10_n04111531_1725.JPEG
cornet-s,3,389,NaN,knife,oven,0.05,2949_nse_dnn_0.05_oven_10_n04111531_6810.JPEG
cornet-s,3,390,NaN,oven,oven,0.05,2950_nse_dnn_0.05_oven_10_n04111531_12980.JPEG
cornet-s,3,391,NaN,chair,chair,0.05,2951_nse_dnn_0.05_chair_10_n02791124_2105.JPEG
cornet-s,3,392,NaN,chair,chair,0.05,2952_nse_dnn_0.05_chair_10_n02791124_1682.JPEG
cornet-s,3,393,NaN,chair,chair,0.05,2953_nse_dnn_0.05_chair_10_n04099969_19571.JPEG
cornet-s,3,394,NaN,chair,chair,0.05,2954_nse_dnn_0.05_chair_10_n04429376_16192.JPEG
cornet-s,3,395,NaN,chair,chair,0.05,2955_nse_dnn_0.05_chair_10_n02791124_4780.JPEG
cornet-s,3,396,NaN,chair,chair,0.05,2956_nse_dnn_0.05_chair_10_n04099969_9829.JPEG
cornet-s,3,397,NaN,chair,chair,0.05,2957_nse_dnn_0.05_chair_10_n03376595_715.JPEG
cornet-s,3,398,NaN,chair,chair,0.05,2958_nse_dnn_0.05_chair_10_n03376595_15409.JPEG
cornet-s,3,399,NaN,chair,chair,0.05,2959_nse_dnn_0.05_chair_10_n02791124_15339.JPEG
cornet-s,3,400,NaN,chair,chair,0.05,2960_nse_dnn_0.05_chair_10_n04099969_26310.JPEG
cornet-s,3,401,NaN,bear,bear,0.05,2961_nse_dnn_0.05_bear_10_n02132136_5778.JPEG
cornet-s,3,402,NaN,elephant,bear,0.05,2962_nse_dnn_0.05_bear_10_n02133161_12878.JPEG
cornet-s,3,403,NaN,bear,bear,0.05,2963_nse_dnn_0.05_bear_10_n02134418_4177.JPEG
cornet-s,3,404,NaN,bear,bear,0.05,2964_nse_dnn_0.05_bear_10_n02133161_6393.JPEG
cornet-s,3,405,NaN,boat,bear,0.05,2965_nse_dnn_0.05_bear_10_n02132136_10654.JPEG
cornet-s,3,406,NaN,bear,bear,0.05,2966_nse_dnn_0.05_bear_10_n02133161_6917.JPEG
cornet-s,3,407,NaN,chair,bear,0.05,2967_nse_dnn_0.05_bear_10_n02133161_8252.JPEG
cornet-s,3,408,NaN,bear,bear,0.05,2968_nse_dnn_0.05_bear_10_n02133161_14317.JPEG
cornet-s,3,409,NaN,bear,bear,0.05,2969_nse_dnn_0.05_bear_10_n02134418_4575.JPEG
cornet-s,3,410,NaN,bear,bear,0.05,2970_nse_dnn_0.05_bear_10_n02134418_780.JPEG
cornet-s,3,411,NaN,boat,boat,0.05,2971_nse_dnn_0.05_boat_10_n04273569_32101.JPEG
cornet-s,3,412,NaN,boat,boat,0.05,2972_nse_dnn_0.05_boat_10_n03344393_3633.JPEG
cornet-s,3,413,NaN,boat,boat,0.05,2973_nse_dnn_0.05_boat_10_n04612504_17850.JPEG
cornet-s,3,414,NaN,boat,boat,0.05,2974_nse_dnn_0.05_boat_10_n04273569_18749.JPEG
cornet-s,3,415,NaN,airplane,boat,0.05,2975_nse_dnn_0.05_boat_10_n04273569_30439.JPEG
cornet-s,3,416,NaN,boat,boat,0.05,2976_nse_dnn_0.05_boat_10_n04612504_7103.JPEG
cornet-s,3,417,NaN,boat,boat,0.05,2977_nse_dnn_0.05_boat_10_n04612504_11005.JPEG
cornet-s,3,418,NaN,boat,boat,0.05,2978_nse_dnn_0.05_boat_10_n04273569_10872.JPEG
cornet-s,3,419,NaN,boat,boat,0.05,2979_nse_dnn_0.05_boat_10_n03344393_2646.JPEG
cornet-s,3,420,NaN,boat,boat,0.05,2980_nse_dnn_0.05_boat_10_n03344393_9918.JPEG
cornet-s,3,421,NaN,cat,cat,0.05,2981_nse_dnn_0.05_cat_10_n02123597_6693.JPEG
cornet-s,3,422,NaN,cat,cat,0.05,2982_nse_dnn_0.05_cat_10_n02125311_26209.JPEG
cornet-s,3,423,NaN,cat,cat,0.05,2983_nse_dnn_0.05_cat_10_n02123394_602.JPEG
cornet-s,3,424,NaN,cat,cat,0.05,2984_nse_dnn_0.05_cat_10_n02123394_454.JPEG
cornet-s,3,425,NaN,cat,cat,0.05,2985_nse_dnn_0.05_cat_10_n02125311_3277.JPEG
cornet-s,3,426,NaN,cat,cat,0.05,2986_nse_dnn_0.05_cat_10_n02123597_13286.JPEG
cornet-s,3,427,NaN,cat,cat,0.05,2987_nse_dnn_0.05_cat_10_n02123394_1137.JPEG
cornet-s,3,428,NaN,cat,cat,0.05,2988_nse_dnn_0.05_cat_10_n02123045_10873.JPEG
cornet-s,3,429,NaN,cat,cat,0.05,2989_nse_dnn_0.05_cat_10_n02125311_19961.JPEG
cornet-s,3,430,NaN,cat,cat,0.05,2990_nse_dnn_0.05_cat_10_n02124075_8932.JPEG
cornet-s,3,431,NaN,bottle,bottle,0.05,2991_nse_dnn_0.05_bottle_10_n03983396_2565.JPEG
cornet-s,3,432,NaN,bottle,bottle,0.05,2992_nse_dnn_0.05_bottle_10_n02823428_6560.JPEG
cornet-s,3,433,NaN,bottle,bottle,0.05,2993_nse_dnn_0.05_bottle_10_n03983396_8101.JPEG
cornet-s,3,434,NaN,bottle,bottle,0.05,2994_nse_dnn_0.05_bottle_10_n03983396_12184.JPEG
cornet-s,3,435,NaN,bottle,bottle,0.05,2995_nse_dnn_0.05_bottle_10_n04591713_4523.JPEG
cornet-s,3,436,NaN,bottle,bottle,0.05,2996_nse_dnn_0.05_bottle_10_n04579145_3900.JPEG
cornet-s,3,437,NaN,bottle,bottle,0.05,2997_nse_dnn_0.05_bottle_10_n04557648_11619.JPEG
cornet-s,3,438,NaN,bottle,bottle,0.05,2998_nse_dnn_0.05_bottle_10_n02823428_14823.JPEG
cornet-s,3,439,NaN,bottle,bottle,0.05,2999_nse_dnn_0.05_bottle_10_n04591713_13349.JPEG
cornet-s,3,440,NaN,bottle,bottle,0.05,3000_nse_dnn_0.05_bottle_10_n02823428_5102.JPEG
cornet-s,3,441,NaN,truck,truck,0.05,3001_nse_dnn_0.05_truck_10_n03796401_25111.JPEG
cornet-s,3,442,NaN,boat,truck,0.05,3002_nse_dnn_0.05_truck_10_n03417042_3406.JPEG
cornet-s,3,443,NaN,truck,truck,0.05,3003_nse_dnn_0.05_truck_10_n04467665_39726.JPEG
cornet-s,3,444,NaN,truck,truck,0.05,3004_nse_dnn_0.05_truck_10_n03796401_25807.JPEG
cornet-s,3,445,NaN,truck,truck,0.05,3005_nse_dnn_0.05_truck_10_n03417042_8602.JPEG
cornet-s,3,446,NaN,truck,truck,0.05,3006_nse_dnn_0.05_truck_10_n04467665_46073.JPEG
cornet-s,3,447,NaN,truck,truck,0.05,3007_nse_dnn_0.05_truck_10_n04467665_49132.JPEG
cornet-s,3,448,NaN,truck,truck,0.05,3008_nse_dnn_0.05_truck_10_n03417042_2491.JPEG
cornet-s,3,449,NaN,truck,truck,0.05,3009_nse_dnn_0.05_truck_10_n04467665_52682.JPEG
cornet-s,3,450,NaN,boat,truck,0.05,3010_nse_dnn_0.05_truck_10_n03417042_5125.JPEG
cornet-s,3,451,NaN,car,car,0.05,3011_nse_dnn_0.05_car_10_n02814533_41531.JPEG
cornet-s,3,452,NaN,car,car,0.05,3012_nse_dnn_0.05_car_10_n04285008_8465.JPEG
cornet-s,3,453,NaN,boat,car,0.05,3013_nse_dnn_0.05_car_10_n03100240_15979.JPEG
cornet-s,3,454,NaN,car,car,0.05,3014_nse_dnn_0.05_car_10_n03100240_23060.JPEG
cornet-s,3,455,NaN,car,car,0.05,3015_nse_dnn_0.05_car_10_n02814533_65759.JPEG
cornet-s,3,456,NaN,car,car,0.05,3016_nse_dnn_0.05_car_10_n02814533_81438.JPEG
cornet-s,3,457,NaN,car,car,0.05,3017_nse_dnn_0.05_car_10_n03100240_1428.JPEG
cornet-s,3,458,NaN,car,car,0.05,3018_nse_dnn_0.05_car_10_n04285008_10703.JPEG
cornet-s,3,459,NaN,car,car,0.05,3019_nse_dnn_0.05_car_10_n04285008_1841.JPEG
cornet-s,3,460,NaN,car,car,0.05,3020_nse_dnn_0.05_car_10_n03100240_17364.JPEG
cornet-s,3,461,NaN,bird,bird,0.05,3021_nse_dnn_0.05_bird_10_n01534433_11479.JPEG
cornet-s,3,462,NaN,boat,bird,0.05,3022_nse_dnn_0.05_bird_10_n01833805_16426.JPEG
cornet-s,3,463,NaN,chair,bird,0.05,3023_nse_dnn_0.05_bird_10_n01537544_26245.JPEG
cornet-s,3,464,NaN,cat,bird,0.05,3024_nse_dnn_0.05_bird_10_n01833805_5366.JPEG
cornet-s,3,465,NaN,bird,bird,0.05,3025_nse_dnn_0.05_bird_10_n02002724_1185.JPEG
cornet-s,3,466,NaN,bird,bird,0.05,3026_nse_dnn_0.05_bird_10_n01855032_1456.JPEG
cornet-s,3,467,NaN,elephant,bird,0.05,3027_nse_dnn_0.05_bird_10_n01797886_14952.JPEG
cornet-s,3,468,NaN,elephant,bird,0.05,3028_nse_dnn_0.05_bird_10_n01818515_5733.JPEG
cornet-s,3,469,NaN,boat,bird,0.05,3029_nse_dnn_0.05_bird_10_n02037110_6992.JPEG
cornet-s,3,470,NaN,bottle,bird,0.05,3030_nse_dnn_0.05_bird_10_n01833805_28946.JPEG
cornet-s,3,471,NaN,elephant,dog,0.05,3031_nse_dnn_0.05_dog_10_n02105251_6945.JPEG
cornet-s,3,472,NaN,dog,dog,0.05,3032_nse_dnn_0.05_dog_10_n02107683_2185.JPEG
cornet-s,3,473,NaN,cat,dog,0.05,3033_nse_dnn_0.05_dog_10_n02105855_11830.JPEG
cornet-s,3,474,NaN,elephant,dog,0.05,3034_nse_dnn_0.05_dog_10_n02097209_6008.JPEG
cornet-s,3,475,NaN,chair,dog,0.05,3035_nse_dnn_0.05_dog_10_n02106662_2337.JPEG
cornet-s,3,476,NaN,dog,dog,0.05,3036_nse_dnn_0.05_dog_10_n02102973_5493.JPEG
cornet-s,3,477,NaN,dog,dog,0.05,3037_nse_dnn_0.05_dog_10_n02094114_8222.JPEG
cornet-s,3,478,NaN,dog,dog,0.05,3038_nse_dnn_0.05_dog_10_n02111500_6514.JPEG
cornet-s,3,479,NaN,bear,dog,0.05,3039_nse_dnn_0.05_dog_10_n02104029_1218.JPEG
cornet-s,3,480,NaN,chair,dog,0.05,3040_nse_dnn_0.05_dog_10_n02110806_23927.JPEG
cornet-s,3,481,NaN,clock,knife,0.10,3041_nse_dnn_0.10_knife_10_n03041632_10540.JPEG
cornet-s,3,482,NaN,boat,knife,0.10,3042_nse_dnn_0.10_knife_10_n03041632_32774.JPEG
cornet-s,3,483,NaN,boat,knife,0.10,3043_nse_dnn_0.10_knife_10_n03041632_76163.JPEG
cornet-s,3,484,NaN,chair,knife,0.10,3044_nse_dnn_0.10_knife_10_n03041632_99799.JPEG
cornet-s,3,485,NaN,knife,knife,0.10,3045_nse_dnn_0.10_knife_10_n03041632_29427.JPEG
cornet-s,3,486,NaN,clock,knife,0.10,3046_nse_dnn_0.10_knife_10_n03041632_45338.JPEG
cornet-s,3,487,NaN,knife,knife,0.10,3047_nse_dnn_0.10_knife_10_n03041632_23968.JPEG
cornet-s,3,488,NaN,chair,knife,0.10,3048_nse_dnn_0.10_knife_10_n03041632_44212.JPEG
cornet-s,3,489,NaN,clock,knife,0.10,3049_nse_dnn_0.10_knife_10_n03041632_85488.JPEG
cornet-s,3,490,NaN,chair,knife,0.10,3050_nse_dnn_0.10_knife_10_n03041632_29801.JPEG
cornet-s,3,491,NaN,keyboard,keyboard,0.10,3051_nse_dnn_0.10_keyboard_10_n03085013_1695.JPEG
cornet-s,3,492,NaN,knife,keyboard,0.10,3052_nse_dnn_0.10_keyboard_10_n03085013_18785.JPEG
cornet-s,3,493,NaN,chair,keyboard,0.10,3053_nse_dnn_0.10_keyboard_10_n03085013_4856.JPEG
cornet-s,3,494,NaN,chair,keyboard,0.10,3054_nse_dnn_0.10_keyboard_10_n03085013_21678.JPEG
cornet-s,3,495,NaN,keyboard,keyboard,0.10,3055_nse_dnn_0.10_keyboard_10_n04505470_6638.JPEG
cornet-s,3,496,NaN,cat,keyboard,0.10,3056_nse_dnn_0.10_keyboard_10_n03085013_21266.JPEG
cornet-s,3,497,NaN,keyboard,keyboard,0.10,3057_nse_dnn_0.10_keyboard_10_n03085013_19316.JPEG
cornet-s,3,498,NaN,knife,keyboard,0.10,3058_nse_dnn_0.10_keyboard_10_n04505470_4344.JPEG
cornet-s,3,499,NaN,boat,keyboard,0.10,3059_nse_dnn_0.10_keyboard_10_n03085013_4012.JPEG
cornet-s,3,500,NaN,keyboard,keyboard,0.10,3060_nse_dnn_0.10_keyboard_10_n04505470_3905.JPEG
cornet-s,3,501,NaN,cat,elephant,0.10,3061_nse_dnn_0.10_elephant_10_n02504458_7245.JPEG
cornet-s,3,502,NaN,elephant,elephant,0.10,3062_nse_dnn_0.10_elephant_10_n02504013_1399.JPEG
cornet-s,3,503,NaN,chair,elephant,0.10,3063_nse_dnn_0.10_elephant_10_n02504458_7814.JPEG
cornet-s,3,504,NaN,chair,elephant,0.10,3064_nse_dnn_0.10_elephant_10_n02504458_5204.JPEG
cornet-s,3,505,NaN,chair,elephant,0.10,3065_nse_dnn_0.10_elephant_10_n02504013_1604.JPEG
cornet-s,3,506,NaN,bear,elephant,0.10,3066_nse_dnn_0.10_elephant_10_n02504013_10793.JPEG
cornet-s,3,507,NaN,elephant,elephant,0.10,3067_nse_dnn_0.10_elephant_10_n02504458_2888.JPEG
cornet-s,3,508,NaN,bear,elephant,0.10,3068_nse_dnn_0.10_elephant_10_n02504458_3881.JPEG
cornet-s,3,509,NaN,chair,elephant,0.10,3069_nse_dnn_0.10_elephant_10_n02504013_6929.JPEG
cornet-s,3,510,NaN,chair,elephant,0.10,3070_nse_dnn_0.10_elephant_10_n02504013_104.JPEG
cornet-s,3,511,NaN,clock,bicycle,0.10,3071_nse_dnn_0.10_bicycle_10_n03792782_28030.JPEG
cornet-s,3,512,NaN,bicycle,bicycle,0.10,3072_nse_dnn_0.10_bicycle_10_n02835271_4593.JPEG
cornet-s,3,513,NaN,bicycle,bicycle,0.10,3073_nse_dnn_0.10_bicycle_10_n02835271_5657.JPEG
cornet-s,3,514,NaN,bicycle,bicycle,0.10,3074_nse_dnn_0.10_bicycle_10_n03792782_4249.JPEG
cornet-s,3,515,NaN,bicycle,bicycle,0.10,3075_nse_dnn_0.10_bicycle_10_n02835271_4599.JPEG
cornet-s,3,516,NaN,clock,bicycle,0.10,3076_nse_dnn_0.10_bicycle_10_n03792782_35904.JPEG
cornet-s,3,517,NaN,clock,bicycle,0.10,3077_nse_dnn_0.10_bicycle_10_n02835271_9369.JPEG
cornet-s,3,518,NaN,chair,bicycle,0.10,3078_nse_dnn_0.10_bicycle_10_n02835271_2815.JPEG
cornet-s,3,519,NaN,bicycle,bicycle,0.10,3079_nse_dnn_0.10_bicycle_10_n02835271_3711.JPEG
cornet-s,3,520,NaN,bicycle,bicycle,0.10,3080_nse_dnn_0.10_bicycle_10_n02835271_10166.JPEG
cornet-s,3,521,NaN,airplane,airplane,0.10,3081_nse_dnn_0.10_airplane_10_n02690373_5689.JPEG
cornet-s,3,522,NaN,bicycle,airplane,0.10,3082_nse_dnn_0.10_airplane_10_n02690373_5344.JPEG
cornet-s,3,523,NaN,airplane,airplane,0.10,3083_nse_dnn_0.10_airplane_10_n02690373_734.JPEG
cornet-s,3,524,NaN,airplane,airplane,0.10,3084_nse_dnn_0.10_airplane_10_n02690373_102.JPEG
cornet-s,3,525,NaN,chair,airplane,0.10,3085_nse_dnn_0.10_airplane_10_n02690373_9926.JPEG
cornet-s,3,526,NaN,boat,airplane,0.10,3086_nse_dnn_0.10_airplane_10_n02690373_6856.JPEG
cornet-s,3,527,NaN,boat,airplane,0.10,3087_nse_dnn_0.10_airplane_10_n02690373_8233.JPEG
cornet-s,3,528,NaN,knife,airplane,0.10,3088_nse_dnn_0.10_airplane_10_n02690373_10012.JPEG
cornet-s,3,529,NaN,boat,airplane,0.10,3089_nse_dnn_0.10_airplane_10_n02690373_4578.JPEG
cornet-s,3,530,NaN,boat,airplane,0.10,3090_nse_dnn_0.10_airplane_10_n02690373_1053.JPEG
cornet-s,3,531,NaN,chair,clock,0.10,3091_nse_dnn_0.10_clock_10_n03196217_7741.JPEG
cornet-s,3,532,NaN,chair,clock,0.10,3092_nse_dnn_0.10_clock_10_n03196217_6376.JPEG
cornet-s,3,533,NaN,clock,clock,0.10,3093_nse_dnn_0.10_clock_10_n02708093_5758.JPEG
cornet-s,3,534,NaN,chair,clock,0.10,3094_nse_dnn_0.10_clock_10_n03196217_5414.JPEG
cornet-s,3,535,NaN,clock,clock,0.10,3095_nse_dnn_0.10_clock_10_n02708093_3734.JPEG
cornet-s,3,536,NaN,clock,clock,0.10,3096_nse_dnn_0.10_clock_10_n02708093_2742.JPEG
cornet-s,3,537,NaN,clock,clock,0.10,3097_nse_dnn_0.10_clock_10_n02708093_2346.JPEG
cornet-s,3,538,NaN,clock,clock,0.10,3098_nse_dnn_0.10_clock_10_n02708093_1038.JPEG
cornet-s,3,539,NaN,clock,clock,0.10,3099_nse_dnn_0.10_clock_10_n02708093_6717.JPEG
cornet-s,3,540,NaN,clock,clock,0.10,3100_nse_dnn_0.10_clock_10_n04548280_8942.JPEG
cornet-s,3,541,NaN,chair,oven,0.10,3101_nse_dnn_0.10_oven_10_n04111531_2350.JPEG
cornet-s,3,542,NaN,oven,oven,0.10,3102_nse_dnn_0.10_oven_10_n04111531_16795.JPEG
cornet-s,3,543,NaN,bear,oven,0.10,3103_nse_dnn_0.10_oven_10_n04111531_190.JPEG
cornet-s,3,544,NaN,chair,oven,0.10,3104_nse_dnn_0.10_oven_10_n04111531_7965.JPEG
cornet-s,3,545,NaN,clock,oven,0.10,3105_nse_dnn_0.10_oven_10_n04111531_7664.JPEG
cornet-s,3,546,NaN,boat,oven,0.10,3106_nse_dnn_0.10_oven_10_n04111531_6393.JPEG
cornet-s,3,547,NaN,knife,oven,0.10,3107_nse_dnn_0.10_oven_10_n04111531_8531.JPEG
cornet-s,3,548,NaN,elephant,oven,0.10,3108_nse_dnn_0.10_oven_10_n04111531_4665.JPEG
cornet-s,3,549,NaN,chair,oven,0.10,3109_nse_dnn_0.10_oven_10_n04111531_3314.JPEG
cornet-s,3,550,NaN,chair,oven,0.10,3110_nse_dnn_0.10_oven_10_n04111531_14269.JPEG
cornet-s,3,551,NaN,clock,chair,0.10,3111_nse_dnn_0.10_chair_10_n04429376_24679.JPEG
cornet-s,3,552,NaN,clock,chair,0.10,3112_nse_dnn_0.10_chair_10_n04429376_27968.JPEG
cornet-s,3,553,NaN,chair,chair,0.10,3113_nse_dnn_0.10_chair_10_n04099969_9194.JPEG
cornet-s,3,554,NaN,chair,chair,0.10,3114_nse_dnn_0.10_chair_10_n04099969_16985.JPEG
cornet-s,3,555,NaN,keyboard,chair,0.10,3115_nse_dnn_0.10_chair_10_n02791124_3861.JPEG
cornet-s,3,556,NaN,clock,chair,0.10,3116_nse_dnn_0.10_chair_10_n03376595_6864.JPEG
cornet-s,3,557,NaN,knife,chair,0.10,3117_nse_dnn_0.10_chair_10_n04429376_1381.JPEG
cornet-s,3,558,NaN,chair,chair,0.10,3118_nse_dnn_0.10_chair_10_n04429376_74.JPEG
cornet-s,3,559,NaN,boat,chair,0.10,3119_nse_dnn_0.10_chair_10_n02791124_4109.JPEG
cornet-s,3,560,NaN,chair,chair,0.10,3120_nse_dnn_0.10_chair_10_n02791124_4347.JPEG
cornet-s,3,561,NaN,bear,bear,0.10,3121_nse_dnn_0.10_bear_10_n02133161_987.JPEG
cornet-s,3,562,NaN,cat,bear,0.10,3122_nse_dnn_0.10_bear_10_n02134418_459.JPEG
cornet-s,3,563,NaN,bear,bear,0.10,3123_nse_dnn_0.10_bear_10_n02133161_16147.JPEG
cornet-s,3,564,NaN,boat,bear,0.10,3124_nse_dnn_0.10_bear_10_n02134418_768.JPEG
cornet-s,3,565,NaN,bear,bear,0.10,3125_nse_dnn_0.10_bear_10_n02134084_887.JPEG
cornet-s,3,566,NaN,bear,bear,0.10,3126_nse_dnn_0.10_bear_10_n02134084_3386.JPEG
cornet-s,3,567,NaN,cat,bear,0.10,3127_nse_dnn_0.10_bear_10_n02132136_3189.JPEG
cornet-s,3,568,NaN,boat,bear,0.10,3128_nse_dnn_0.10_bear_10_n02134084_6516.JPEG
cornet-s,3,569,NaN,bear,bear,0.10,3129_nse_dnn_0.10_bear_10_n02133161_4305.JPEG
cornet-s,3,570,NaN,bear,bear,0.10,3130_nse_dnn_0.10_bear_10_n02132136_8975.JPEG
cornet-s,3,571,NaN,boat,boat,0.10,3131_nse_dnn_0.10_boat_10_n02951358_6275.JPEG
cornet-s,3,572,NaN,boat,boat,0.10,3132_nse_dnn_0.10_boat_10_n04612504_7250.JPEG
cornet-s,3,573,NaN,boat,boat,0.10,3133_nse_dnn_0.10_boat_10_n04273569_8774.JPEG
cornet-s,3,574,NaN,chair,boat,0.10,3134_nse_dnn_0.10_boat_10_n02951358_2445.JPEG
cornet-s,3,575,NaN,boat,boat,0.10,3135_nse_dnn_0.10_boat_10_n03344393_9214.JPEG
cornet-s,3,576,NaN,boat,boat,0.10,3136_nse_dnn_0.10_boat_10_n04273569_12569.JPEG
cornet-s,3,577,NaN,clock,boat,0.10,3137_nse_dnn_0.10_boat_10_n04612504_6722.JPEG
cornet-s,3,578,NaN,chair,boat,0.10,3138_nse_dnn_0.10_boat_10_n02951358_30612.JPEG
cornet-s,3,579,NaN,boat,boat,0.10,3139_nse_dnn_0.10_boat_10_n03662601_1536.JPEG
cornet-s,3,580,NaN,chair,boat,0.10,3140_nse_dnn_0.10_boat_10_n03662601_32239.JPEG
cornet-s,3,581,NaN,cat,cat,0.10,3141_nse_dnn_0.10_cat_10_n02124075_3053.JPEG
cornet-s,3,582,NaN,boat,cat,0.10,3142_nse_dnn_0.10_cat_10_n02123394_1664.JPEG
cornet-s,3,583,NaN,cat,cat,0.10,3143_nse_dnn_0.10_cat_10_n02123045_13060.JPEG
cornet-s,3,584,NaN,chair,cat,0.10,3144_nse_dnn_0.10_cat_10_n02125311_16489.JPEG
cornet-s,3,585,NaN,chair,cat,0.10,3145_nse_dnn_0.10_cat_10_n02125311_4756.JPEG
cornet-s,3,586,NaN,chair,cat,0.10,3146_nse_dnn_0.10_cat_10_n02123394_89.JPEG
cornet-s,3,587,NaN,cat,cat,0.10,3147_nse_dnn_0.10_cat_10_n02125311_6628.JPEG
cornet-s,3,588,NaN,chair,cat,0.10,3148_nse_dnn_0.10_cat_10_n02123159_3767.JPEG
cornet-s,3,589,NaN,cat,cat,0.10,3149_nse_dnn_0.10_cat_10_n02123159_7005.JPEG
cornet-s,3,590,NaN,cat,cat,0.10,3150_nse_dnn_0.10_cat_10_n02125311_35583.JPEG
cornet-s,3,591,NaN,chair,bottle,0.10,3151_nse_dnn_0.10_bottle_10_n04591713_4891.JPEG
cornet-s,3,592,NaN,bottle,bottle,0.10,3152_nse_dnn_0.10_bottle_10_n04560804_9931.JPEG
cornet-s,3,593,NaN,bottle,bottle,0.10,3153_nse_dnn_0.10_bottle_10_n04579145_2140.JPEG
cornet-s,3,594,NaN,keyboard,bottle,0.10,3154_nse_dnn_0.10_bottle_10_n04579145_1236.JPEG
cornet-s,3,595,NaN,bicycle,bottle,0.10,3155_nse_dnn_0.10_bottle_10_n03937543_5818.JPEG
cornet-s,3,596,NaN,truck,bottle,0.10,3156_nse_dnn_0.10_bottle_10_n03937543_10808.JPEG
cornet-s,3,597,NaN,clock,bottle,0.10,3157_nse_dnn_0.10_bottle_10_n04579145_1614.JPEG
cornet-s,3,598,NaN,boat,bottle,0.10,3158_nse_dnn_0.10_bottle_10_n03937543_6149.JPEG
cornet-s,3,599,NaN,bottle,bottle,0.10,3159_nse_dnn_0.10_bottle_10_n02823428_9624.JPEG
cornet-s,3,600,NaN,cat,bottle,0.10,3160_nse_dnn_0.10_bottle_10_n04591713_5426.JPEG
cornet-s,3,601,NaN,clock,truck,0.10,3161_nse_dnn_0.10_truck_10_n03796401_7104.JPEG
cornet-s,3,602,NaN,clock,truck,0.10,3162_nse_dnn_0.10_truck_10_n03417042_2726.JPEG
cornet-s,3,603,NaN,chair,truck,0.10,3163_nse_dnn_0.10_truck_10_n03417042_12874.JPEG
cornet-s,3,604,NaN,truck,truck,0.10,3164_nse_dnn_0.10_truck_10_n03417042_12588.JPEG
cornet-s,3,605,NaN,truck,truck,0.10,3165_nse_dnn_0.10_truck_10_n03796401_9532.JPEG
cornet-s,3,606,NaN,truck,truck,0.10,3166_nse_dnn_0.10_truck_10_n03417042_4520.JPEG
cornet-s,3,607,NaN,chair,truck,0.10,3167_nse_dnn_0.10_truck_10_n04467665_45735.JPEG
cornet-s,3,608,NaN,chair,truck,0.10,3168_nse_dnn_0.10_truck_10_n03796401_3649.JPEG
cornet-s,3,609,NaN,chair,truck,0.10,3169_nse_dnn_0.10_truck_10_n03417042_5186.JPEG
cornet-s,3,610,NaN,boat,truck,0.10,3170_nse_dnn_0.10_truck_10_n03796401_20373.JPEG
cornet-s,3,611,NaN,truck,car,0.10,3171_nse_dnn_0.10_car_10_n02814533_46520.JPEG
cornet-s,3,612,NaN,bicycle,car,0.10,3172_nse_dnn_0.10_car_10_n03100240_15503.JPEG
cornet-s,3,613,NaN,airplane,car,0.10,3173_nse_dnn_0.10_car_10_n03100240_3756.JPEG
cornet-s,3,614,NaN,truck,car,0.10,3174_nse_dnn_0.10_car_10_n04285008_3351.JPEG
cornet-s,3,615,NaN,truck,car,0.10,3175_nse_dnn_0.10_car_10_n02814533_86761.JPEG
cornet-s,3,616,NaN,truck,car,0.10,3176_nse_dnn_0.10_car_10_n03100240_11854.JPEG
cornet-s,3,617,NaN,truck,car,0.10,3177_nse_dnn_0.10_car_10_n04285008_7473.JPEG
cornet-s,3,618,NaN,truck,car,0.10,3178_nse_dnn_0.10_car_10_n04285008_13739.JPEG
cornet-s,3,619,NaN,truck,car,0.10,3179_nse_dnn_0.10_car_10_n03100240_2331.JPEG
cornet-s,3,620,NaN,chair,car,0.10,3180_nse_dnn_0.10_car_10_n04285008_12189.JPEG
cornet-s,3,621,NaN,cat,bird,0.10,3181_nse_dnn_0.10_bird_10_n01843383_4665.JPEG
cornet-s,3,622,NaN,boat,bird,0.10,3182_nse_dnn_0.10_bird_10_n01537544_2908.JPEG
cornet-s,3,623,NaN,chair,bird,0.10,3183_nse_dnn_0.10_bird_10_n02027492_725.JPEG
cornet-s,3,624,NaN,dog,bird,0.10,3184_nse_dnn_0.10_bird_10_n01614925_1855.JPEG
cornet-s,3,625,NaN,elephant,bird,0.10,3185_nse_dnn_0.10_bird_10_n01558993_14417.JPEG
cornet-s,3,626,NaN,chair,bird,0.10,3186_nse_dnn_0.10_bird_10_n02013706_3852.JPEG
cornet-s,3,627,NaN,cat,bird,0.10,3187_nse_dnn_0.10_bird_10_n01829413_4946.JPEG
cornet-s,3,628,NaN,bear,bird,0.10,3188_nse_dnn_0.10_bird_10_n02002724_2565.JPEG
cornet-s,3,629,NaN,cat,bird,0.10,3189_nse_dnn_0.10_bird_10_n01534433_7487.JPEG
cornet-s,3,630,NaN,clock,bird,0.10,3190_nse_dnn_0.10_bird_10_n01560419_5790.JPEG
cornet-s,3,631,NaN,clock,dog,0.10,3191_nse_dnn_0.10_dog_10_n02107312_3667.JPEG
cornet-s,3,632,NaN,cat,dog,0.10,3192_nse_dnn_0.10_dog_10_n02097474_977.JPEG
cornet-s,3,633,NaN,bear,dog,0.10,3193_nse_dnn_0.10_dog_10_n02110627_9822.JPEG
cornet-s,3,634,NaN,cat,dog,0.10,3194_nse_dnn_0.10_dog_10_n02091244_3509.JPEG
cornet-s,3,635,NaN,chair,dog,0.10,3195_nse_dnn_0.10_dog_10_n02099849_3110.JPEG
cornet-s,3,636,NaN,bear,dog,0.10,3196_nse_dnn_0.10_dog_10_n02090721_2105.JPEG
cornet-s,3,637,NaN,chair,dog,0.10,3197_nse_dnn_0.10_dog_10_n02102480_13591.JPEG
cornet-s,3,638,NaN,chair,dog,0.10,3198_nse_dnn_0.10_dog_10_n02106382_3840.JPEG
cornet-s,3,639,NaN,dog,dog,0.10,3199_nse_dnn_0.10_dog_10_n02106550_6777.JPEG
cornet-s,3,640,NaN,bear,dog,0.10,3200_nse_dnn_0.10_dog_10_n02102480_6998.JPEG
cornet-s,3,641,NaN,keyboard,knife,0.20,3201_nse_dnn_0.20_knife_10_n03041632_120.JPEG
cornet-s,3,642,NaN,clock,knife,0.20,3202_nse_dnn_0.20_knife_10_n03041632_12748.JPEG
cornet-s,3,643,NaN,chair,knife,0.20,3203_nse_dnn_0.20_knife_10_n03041632_2338.JPEG
cornet-s,3,644,NaN,elephant,knife,0.20,3204_nse_dnn_0.20_knife_10_n03041632_27929.JPEG
cornet-s,3,645,NaN,chair,knife,0.20,3205_nse_dnn_0.20_knife_10_n03041632_47410.JPEG
cornet-s,3,646,NaN,clock,knife,0.20,3206_nse_dnn_0.20_knife_10_n03041632_11932.JPEG
cornet-s,3,647,NaN,clock,knife,0.20,3207_nse_dnn_0.20_knife_10_n03041632_4305.JPEG
cornet-s,3,648,NaN,chair,knife,0.20,3208_nse_dnn_0.20_knife_10_n03041632_47234.JPEG
cornet-s,3,649,NaN,chair,knife,0.20,3209_nse_dnn_0.20_knife_10_n03041632_20217.JPEG
cornet-s,3,650,NaN,bear,knife,0.20,3210_nse_dnn_0.20_knife_10_n03041632_54603.JPEG
cornet-s,3,651,NaN,clock,keyboard,0.20,3211_nse_dnn_0.20_keyboard_10_n03085013_12399.JPEG
cornet-s,3,652,NaN,chair,keyboard,0.20,3212_nse_dnn_0.20_keyboard_10_n03085013_20675.JPEG
cornet-s,3,653,NaN,clock,keyboard,0.20,3213_nse_dnn_0.20_keyboard_10_n03085013_21049.JPEG
cornet-s,3,654,NaN,clock,keyboard,0.20,3214_nse_dnn_0.20_keyboard_10_n04505470_5125.JPEG
cornet-s,3,655,NaN,chair,keyboard,0.20,3215_nse_dnn_0.20_keyboard_10_n04505470_8469.JPEG
cornet-s,3,656,NaN,boat,keyboard,0.20,3216_nse_dnn_0.20_keyboard_10_n03085013_18841.JPEG
cornet-s,3,657,NaN,chair,keyboard,0.20,3217_nse_dnn_0.20_keyboard_10_n03085013_20247.JPEG
cornet-s,3,658,NaN,chair,keyboard,0.20,3218_nse_dnn_0.20_keyboard_10_n03085013_17762.JPEG
cornet-s,3,659,NaN,chair,keyboard,0.20,3219_nse_dnn_0.20_keyboard_10_n04505470_4374.JPEG
cornet-s,3,660,NaN,car,keyboard,0.20,3220_nse_dnn_0.20_keyboard_10_n04505470_7521.JPEG
cornet-s,3,661,NaN,cat,elephant,0.20,3221_nse_dnn_0.20_elephant_10_n02504458_11511.JPEG
cornet-s,3,662,NaN,chair,elephant,0.20,3222_nse_dnn_0.20_elephant_10_n02504013_1785.JPEG
cornet-s,3,663,NaN,keyboard,elephant,0.20,3223_nse_dnn_0.20_elephant_10_n02504458_8341.JPEG
cornet-s,3,664,NaN,boat,elephant,0.20,3224_nse_dnn_0.20_elephant_10_n02504458_3390.JPEG
cornet-s,3,665,NaN,chair,elephant,0.20,3225_nse_dnn_0.20_elephant_10_n02504013_18036.JPEG
cornet-s,3,666,NaN,chair,elephant,0.20,3226_nse_dnn_0.20_elephant_10_n02504458_4963.JPEG
cornet-s,3,667,NaN,clock,elephant,0.20,3227_nse_dnn_0.20_elephant_10_n02504458_1085.JPEG
cornet-s,3,668,NaN,boat,elephant,0.20,3228_nse_dnn_0.20_elephant_10_n02504013_7799.JPEG
cornet-s,3,669,NaN,cat,elephant,0.20,3229_nse_dnn_0.20_elephant_10_n02504458_3160.JPEG
cornet-s,3,670,NaN,elephant,elephant,0.20,3230_nse_dnn_0.20_elephant_10_n02504458_5086.JPEG
cornet-s,3,671,NaN,chair,bicycle,0.20,3231_nse_dnn_0.20_bicycle_10_n03792782_32458.JPEG
cornet-s,3,672,NaN,chair,bicycle,0.20,3232_nse_dnn_0.20_bicycle_10_n03792782_30697.JPEG
cornet-s,3,673,NaN,chair,bicycle,0.20,3233_nse_dnn_0.20_bicycle_10_n02835271_42687.JPEG
cornet-s,3,674,NaN,chair,bicycle,0.20,3234_nse_dnn_0.20_bicycle_10_n03792782_6761.JPEG
cornet-s,3,675,NaN,clock,bicycle,0.20,3235_nse_dnn_0.20_bicycle_10_n03792782_5280.JPEG
cornet-s,3,676,NaN,chair,bicycle,0.20,3236_nse_dnn_0.20_bicycle_10_n02835271_64.JPEG
cornet-s,3,677,NaN,clock,bicycle,0.20,3237_nse_dnn_0.20_bicycle_10_n03792782_12561.JPEG
cornet-s,3,678,NaN,chair,bicycle,0.20,3238_nse_dnn_0.20_bicycle_10_n02835271_20637.JPEG
cornet-s,3,679,NaN,chair,bicycle,0.20,3239_nse_dnn_0.20_bicycle_10_n02835271_3538.JPEG
cornet-s,3,680,NaN,bottle,bicycle,0.20,3240_nse_dnn_0.20_bicycle_10_n03792782_12885.JPEG
cornet-s,3,681,NaN,chair,airplane,0.20,3241_nse_dnn_0.20_airplane_10_n02690373_4310.JPEG
cornet-s,3,682,NaN,boat,airplane,0.20,3242_nse_dnn_0.20_airplane_10_n02690373_10044.JPEG
cornet-s,3,683,NaN,clock,airplane,0.20,3243_nse_dnn_0.20_airplane_10_n02690373_3920.JPEG
cornet-s,3,684,NaN,bottle,airplane,0.20,3244_nse_dnn_0.20_airplane_10_n02690373_8592.JPEG
cornet-s,3,685,NaN,boat,airplane,0.20,3245_nse_dnn_0.20_airplane_10_n02690373_2498.JPEG
cornet-s,3,686,NaN,bear,airplane,0.20,3246_nse_dnn_0.20_airplane_10_n02690373_8942.JPEG
cornet-s,3,687,NaN,chair,airplane,0.20,3247_nse_dnn_0.20_airplane_10_n02690373_932.JPEG
cornet-s,3,688,NaN,bottle,airplane,0.20,3248_nse_dnn_0.20_airplane_10_n02690373_20042.JPEG
cornet-s,3,689,NaN,chair,airplane,0.20,3249_nse_dnn_0.20_airplane_10_n02690373_5164.JPEG
cornet-s,3,690,NaN,chair,airplane,0.20,3250_nse_dnn_0.20_airplane_10_n02690373_4608.JPEG
cornet-s,3,691,NaN,clock,clock,0.20,3251_nse_dnn_0.20_clock_10_n04548280_1425.JPEG
cornet-s,3,692,NaN,knife,clock,0.20,3252_nse_dnn_0.20_clock_10_n04548280_2942.JPEG
cornet-s,3,693,NaN,clock,clock,0.20,3253_nse_dnn_0.20_clock_10_n02708093_4286.JPEG
cornet-s,3,694,NaN,clock,clock,0.20,3254_nse_dnn_0.20_clock_10_n02708093_6664.JPEG
cornet-s,3,695,NaN,chair,clock,0.20,3255_nse_dnn_0.20_clock_10_n04548280_5407.JPEG
cornet-s,3,696,NaN,clock,clock,0.20,3256_nse_dnn_0.20_clock_10_n04548280_574.JPEG
cornet-s,3,697,NaN,clock,clock,0.20,3257_nse_dnn_0.20_clock_10_n03196217_2307.JPEG
cornet-s,3,698,NaN,chair,clock,0.20,3258_nse_dnn_0.20_clock_10_n04548280_2091.JPEG
cornet-s,3,699,NaN,chair,clock,0.20,3259_nse_dnn_0.20_clock_10_n03196217_8254.JPEG
cornet-s,3,700,NaN,clock,clock,0.20,3260_nse_dnn_0.20_clock_10_n04548280_3125.JPEG
cornet-s,3,701,NaN,chair,oven,0.20,3261_nse_dnn_0.20_oven_10_n04111531_9308.JPEG
cornet-s,3,702,NaN,cat,oven,0.20,3262_nse_dnn_0.20_oven_10_n04111531_11634.JPEG
cornet-s,3,703,NaN,clock,oven,0.20,3263_nse_dnn_0.20_oven_10_n04111531_21855.JPEG
cornet-s,3,704,NaN,chair,oven,0.20,3264_nse_dnn_0.20_oven_10_n04111531_5578.JPEG
cornet-s,3,705,NaN,clock,oven,0.20,3265_nse_dnn_0.20_oven_10_n04111531_1798.JPEG
cornet-s,3,706,NaN,chair,oven,0.20,3266_nse_dnn_0.20_oven_10_n04111531_2156.JPEG
cornet-s,3,707,NaN,clock,oven,0.20,3267_nse_dnn_0.20_oven_10_n04111531_13590.JPEG
cornet-s,3,708,NaN,clock,oven,0.20,3268_nse_dnn_0.20_oven_10_n04111531_22041.JPEG
cornet-s,3,709,NaN,cat,oven,0.20,3269_nse_dnn_0.20_oven_10_n04111531_663.JPEG
cornet-s,3,710,NaN,knife,oven,0.20,3270_nse_dnn_0.20_oven_10_n04111531_1313.JPEG
cornet-s,3,711,NaN,clock,chair,0.20,3271_nse_dnn_0.20_chair_10_n04429376_3845.JPEG
cornet-s,3,712,NaN,clock,chair,0.20,3272_nse_dnn_0.20_chair_10_n03376595_4121.JPEG
cornet-s,3,713,NaN,clock,chair,0.20,3273_nse_dnn_0.20_chair_10_n04099969_2316.JPEG
cornet-s,3,714,NaN,chair,chair,0.20,3274_nse_dnn_0.20_chair_10_n02791124_13568.JPEG
cornet-s,3,715,NaN,bottle,chair,0.20,3275_nse_dnn_0.20_chair_10_n04099969_7344.JPEG
cornet-s,3,716,NaN,clock,chair,0.20,3276_nse_dnn_0.20_chair_10_n04429376_10442.JPEG
cornet-s,3,717,NaN,bottle,chair,0.20,3277_nse_dnn_0.20_chair_10_n02791124_2008.JPEG
cornet-s,3,718,NaN,clock,chair,0.20,3278_nse_dnn_0.20_chair_10_n02791124_5673.JPEG
cornet-s,3,719,NaN,clock,chair,0.20,3279_nse_dnn_0.20_chair_10_n04429376_23039.JPEG
cornet-s,3,720,NaN,boat,chair,0.20,3280_nse_dnn_0.20_chair_10_n02791124_2966.JPEG
cornet-s,3,721,NaN,chair,bear,0.20,3281_nse_dnn_0.20_bear_10_n02134084_18952.JPEG
cornet-s,3,722,NaN,chair,bear,0.20,3282_nse_dnn_0.20_bear_10_n02134418_11090.JPEG
cornet-s,3,723,NaN,chair,bear,0.20,3283_nse_dnn_0.20_bear_10_n02134418_4734.JPEG
cornet-s,3,724,NaN,boat,bear,0.20,3284_nse_dnn_0.20_bear_10_n02132136_3562.JPEG
cornet-s,3,725,NaN,bear,bear,0.20,3285_nse_dnn_0.20_bear_10_n02134084_14223.JPEG
cornet-s,3,726,NaN,boat,bear,0.20,3286_nse_dnn_0.20_bear_10_n02134418_4762.JPEG
cornet-s,3,727,NaN,cat,bear,0.20,3287_nse_dnn_0.20_bear_10_n02133161_6121.JPEG
cornet-s,3,728,NaN,bear,bear,0.20,3288_nse_dnn_0.20_bear_10_n02134084_8503.JPEG
cornet-s,3,729,NaN,bear,bear,0.20,3289_nse_dnn_0.20_bear_10_n02133161_10108.JPEG
cornet-s,3,730,NaN,clock,bear,0.20,3290_nse_dnn_0.20_bear_10_n02134418_931.JPEG
cornet-s,3,731,NaN,chair,boat,0.20,3291_nse_dnn_0.20_boat_10_n02951358_9679.JPEG
cornet-s,3,732,NaN,boat,boat,0.20,3292_nse_dnn_0.20_boat_10_n04612504_5611.JPEG
cornet-s,3,733,NaN,bottle,boat,0.20,3293_nse_dnn_0.20_boat_10_n04273569_16290.JPEG
cornet-s,3,734,NaN,boat,boat,0.20,3294_nse_dnn_0.20_boat_10_n03344393_8595.JPEG
cornet-s,3,735,NaN,boat,boat,0.20,3295_nse_dnn_0.20_boat_10_n02951358_14015.JPEG
cornet-s,3,736,NaN,boat,boat,0.20,3296_nse_dnn_0.20_boat_10_n04612504_4963.JPEG
cornet-s,3,737,NaN,chair,boat,0.20,3297_nse_dnn_0.20_boat_10_n04273569_17917.JPEG
cornet-s,3,738,NaN,chair,boat,0.20,3298_nse_dnn_0.20_boat_10_n03344393_13860.JPEG
cornet-s,3,739,NaN,chair,boat,0.20,3299_nse_dnn_0.20_boat_10_n04273569_6096.JPEG
cornet-s,3,740,NaN,chair,boat,0.20,3300_nse_dnn_0.20_boat_10_n04612504_2129.JPEG
cornet-s,3,741,NaN,clock,cat,0.20,3301_nse_dnn_0.20_cat_10_n02123159_5627.JPEG
cornet-s,3,742,NaN,clock,cat,0.20,3302_nse_dnn_0.20_cat_10_n02123597_7137.JPEG
cornet-s,3,743,NaN,chair,cat,0.20,3303_nse_dnn_0.20_cat_10_n02124075_15107.JPEG
cornet-s,3,744,NaN,clock,cat,0.20,3304_nse_dnn_0.20_cat_10_n02123394_2249.JPEG
cornet-s,3,745,NaN,clock,cat,0.20,3305_nse_dnn_0.20_cat_10_n02123045_21432.JPEG
cornet-s,3,746,NaN,clock,cat,0.20,3306_nse_dnn_0.20_cat_10_n02123045_5845.JPEG
cornet-s,3,747,NaN,clock,cat,0.20,3307_nse_dnn_0.20_cat_10_n02123394_3143.JPEG
cornet-s,3,748,NaN,clock,cat,0.20,3308_nse_dnn_0.20_cat_10_n02124075_4946.JPEG
cornet-s,3,749,NaN,cat,cat,0.20,3309_nse_dnn_0.20_cat_10_n02123159_8296.JPEG
cornet-s,3,750,NaN,boat,cat,0.20,3310_nse_dnn_0.20_cat_10_n02124075_10155.JPEG
cornet-s,3,751,NaN,boat,bottle,0.20,3311_nse_dnn_0.20_bottle_10_n03983396_2205.JPEG
cornet-s,3,752,NaN,boat,bottle,0.20,3312_nse_dnn_0.20_bottle_10_n03983396_3568.JPEG
cornet-s,3,753,NaN,clock,bottle,0.20,3313_nse_dnn_0.20_bottle_10_n04557648_4595.JPEG
cornet-s,3,754,NaN,boat,bottle,0.20,3314_nse_dnn_0.20_bottle_10_n02823428_4154.JPEG
cornet-s,3,755,NaN,chair,bottle,0.20,3315_nse_dnn_0.20_bottle_10_n02823428_2570.JPEG
cornet-s,3,756,NaN,cat,bottle,0.20,3316_nse_dnn_0.20_bottle_10_n04591713_7984.JPEG
cornet-s,3,757,NaN,chair,bottle,0.20,3317_nse_dnn_0.20_bottle_10_n02823428_6688.JPEG
cornet-s,3,758,NaN,clock,bottle,0.20,3318_nse_dnn_0.20_bottle_10_n03983396_11883.JPEG
cornet-s,3,759,NaN,bottle,bottle,0.20,3319_nse_dnn_0.20_bottle_10_n02823428_6059.JPEG
cornet-s,3,760,NaN,boat,bottle,0.20,3320_nse_dnn_0.20_bottle_10_n03983396_16300.JPEG
cornet-s,3,761,NaN,boat,truck,0.20,3321_nse_dnn_0.20_truck_10_n03796401_4094.JPEG
cornet-s,3,762,NaN,clock,truck,0.20,3322_nse_dnn_0.20_truck_10_n04467665_9812.JPEG
cornet-s,3,763,NaN,clock,truck,0.20,3323_nse_dnn_0.20_truck_10_n03417042_2231.JPEG
cornet-s,3,764,NaN,chair,truck,0.20,3324_nse_dnn_0.20_truck_10_n03417042_21705.JPEG
cornet-s,3,765,NaN,chair,truck,0.20,3325_nse_dnn_0.20_truck_10_n04467665_7341.JPEG
cornet-s,3,766,NaN,chair,truck,0.20,3326_nse_dnn_0.20_truck_10_n03417042_15908.JPEG
cornet-s,3,767,NaN,boat,truck,0.20,3327_nse_dnn_0.20_truck_10_n03796401_18532.JPEG
cornet-s,3,768,NaN,chair,truck,0.20,3328_nse_dnn_0.20_truck_10_n03417042_6419.JPEG
cornet-s,3,769,NaN,chair,truck,0.20,3329_nse_dnn_0.20_truck_10_n03417042_620.JPEG
cornet-s,3,770,NaN,elephant,truck,0.20,3330_nse_dnn_0.20_truck_10_n04467665_2557.JPEG
cornet-s,3,771,NaN,bear,car,0.20,3331_nse_dnn_0.20_car_10_n03100240_1507.JPEG
cornet-s,3,772,NaN,keyboard,car,0.20,3332_nse_dnn_0.20_car_10_n02814533_6424.JPEG
cornet-s,3,773,NaN,chair,car,0.20,3333_nse_dnn_0.20_car_10_n04285008_1680.JPEG
cornet-s,3,774,NaN,car,car,0.20,3334_nse_dnn_0.20_car_10_n02814533_3573.JPEG
cornet-s,3,775,NaN,chair,car,0.20,3335_nse_dnn_0.20_car_10_n02814533_38295.JPEG
cornet-s,3,776,NaN,boat,car,0.20,3336_nse_dnn_0.20_car_10_n02814533_7028.JPEG
cornet-s,3,777,NaN,bear,car,0.20,3337_nse_dnn_0.20_car_10_n03100240_7781.JPEG
cornet-s,3,778,NaN,chair,car,0.20,3338_nse_dnn_0.20_car_10_n03100240_5776.JPEG
cornet-s,3,779,NaN,chair,car,0.20,3339_nse_dnn_0.20_car_10_n03100240_770.JPEG
cornet-s,3,780,NaN,knife,car,0.20,3340_nse_dnn_0.20_car_10_n03100240_6892.JPEG
cornet-s,3,781,NaN,chair,bird,0.20,3341_nse_dnn_0.20_bird_10_n01855032_1573.JPEG
cornet-s,3,782,NaN,boat,bird,0.20,3342_nse_dnn_0.20_bird_10_n01843065_5798.JPEG
cornet-s,3,783,NaN,chair,bird,0.20,3343_nse_dnn_0.20_bird_10_n02013706_5818.JPEG
cornet-s,3,784,NaN,boat,bird,0.20,3344_nse_dnn_0.20_bird_10_n01843383_5207.JPEG
cornet-s,3,785,NaN,boat,bird,0.20,3345_nse_dnn_0.20_bird_10_n02006656_1105.JPEG
cornet-s,3,786,NaN,keyboard,bird,0.20,3346_nse_dnn_0.20_bird_10_n01616318_2808.JPEG
cornet-s,3,787,NaN,bottle,bird,0.20,3347_nse_dnn_0.20_bird_10_n01797886_6916.JPEG
cornet-s,3,788,NaN,chair,bird,0.20,3348_nse_dnn_0.20_bird_10_n01824575_5666.JPEG
cornet-s,3,789,NaN,bear,bird,0.20,3349_nse_dnn_0.20_bird_10_n01843383_6107.JPEG
cornet-s,3,790,NaN,cat,bird,0.20,3350_nse_dnn_0.20_bird_10_n02033041_15026.JPEG
cornet-s,3,791,NaN,cat,dog,0.20,3351_nse_dnn_0.20_dog_10_n02107683_2793.JPEG
cornet-s,3,792,NaN,bottle,dog,0.20,3352_nse_dnn_0.20_dog_10_n02109961_11748.JPEG
cornet-s,3,793,NaN,boat,dog,0.20,3353_nse_dnn_0.20_dog_10_n02107908_8348.JPEG
cornet-s,3,794,NaN,chair,dog,0.20,3354_nse_dnn_0.20_dog_10_n02106662_1739.JPEG
cornet-s,3,795,NaN,bear,dog,0.20,3355_nse_dnn_0.20_dog_10_n02096585_5104.JPEG
cornet-s,3,796,NaN,chair,dog,0.20,3356_nse_dnn_0.20_dog_10_n02098105_791.JPEG
cornet-s,3,797,NaN,clock,dog,0.20,3357_nse_dnn_0.20_dog_10_n02088238_4249.JPEG
cornet-s,3,798,NaN,clock,dog,0.20,3358_nse_dnn_0.20_dog_10_n02086240_4509.JPEG
cornet-s,3,799,NaN,cat,dog,0.20,3359_nse_dnn_0.20_dog_10_n02105162_1437.JPEG
cornet-s,3,800,NaN,chair,dog,0.20,3360_nse_dnn_0.20_dog_10_n02108422_3426.JPEG
cornet-s,3,801,NaN,clock,knife,0.35,3361_nse_dnn_0.35_knife_10_n03041632_6446.JPEG
cornet-s,3,802,NaN,bottle,knife,0.35,3362_nse_dnn_0.35_knife_10_n03041632_24384.JPEG
cornet-s,3,803,NaN,bottle,knife,0.35,3363_nse_dnn_0.35_knife_10_n03041632_16020.JPEG
cornet-s,3,804,NaN,knife,knife,0.35,3364_nse_dnn_0.35_knife_10_n03041632_18532.JPEG
cornet-s,3,805,NaN,knife,knife,0.35,3365_nse_dnn_0.35_knife_10_n03041632_27575.JPEG
cornet-s,3,806,NaN,bear,knife,0.35,3366_nse_dnn_0.35_knife_10_n03041632_5820.JPEG
cornet-s,3,807,NaN,bottle,knife,0.35,3367_nse_dnn_0.35_knife_10_n03041632_17091.JPEG
cornet-s,3,808,NaN,boat,knife,0.35,3368_nse_dnn_0.35_knife_10_n03041632_40450.JPEG
cornet-s,3,809,NaN,chair,knife,0.35,3369_nse_dnn_0.35_knife_10_n03041632_14766.JPEG
cornet-s,3,810,NaN,bottle,knife,0.35,3370_nse_dnn_0.35_knife_10_n03041632_751.JPEG
cornet-s,3,811,NaN,bottle,keyboard,0.35,3371_nse_dnn_0.35_keyboard_10_n04505470_3207.JPEG
cornet-s,3,812,NaN,cat,keyboard,0.35,3372_nse_dnn_0.35_keyboard_10_n04505470_4384.JPEG
cornet-s,3,813,NaN,bottle,keyboard,0.35,3373_nse_dnn_0.35_keyboard_10_n03085013_18796.JPEG
cornet-s,3,814,NaN,clock,keyboard,0.35,3374_nse_dnn_0.35_keyboard_10_n03085013_3733.JPEG
cornet-s,3,815,NaN,knife,keyboard,0.35,3375_nse_dnn_0.35_keyboard_10_n03085013_5667.JPEG
cornet-s,3,816,NaN,clock,keyboard,0.35,3376_nse_dnn_0.35_keyboard_10_n03085013_10661.JPEG
cornet-s,3,817,NaN,knife,keyboard,0.35,3377_nse_dnn_0.35_keyboard_10_n04505470_8789.JPEG
cornet-s,3,818,NaN,clock,keyboard,0.35,3378_nse_dnn_0.35_keyboard_10_n04505470_4704.JPEG
cornet-s,3,819,NaN,knife,keyboard,0.35,3379_nse_dnn_0.35_keyboard_10_n04505470_943.JPEG
cornet-s,3,820,NaN,bottle,keyboard,0.35,3380_nse_dnn_0.35_keyboard_10_n03085013_18918.JPEG
cornet-s,3,821,NaN,bottle,elephant,0.35,3381_nse_dnn_0.35_elephant_10_n02504013_1298.JPEG
cornet-s,3,822,NaN,bottle,elephant,0.35,3382_nse_dnn_0.35_elephant_10_n02504458_4988.JPEG
cornet-s,3,823,NaN,clock,elephant,0.35,3383_nse_dnn_0.35_elephant_10_n02504458_4405.JPEG
cornet-s,3,824,NaN,chair,elephant,0.35,3384_nse_dnn_0.35_elephant_10_n02504013_947.JPEG
cornet-s,3,825,NaN,clock,elephant,0.35,3385_nse_dnn_0.35_elephant_10_n02504458_9835.JPEG
cornet-s,3,826,NaN,clock,elephant,0.35,3386_nse_dnn_0.35_elephant_10_n02504458_3283.JPEG
cornet-s,3,827,NaN,clock,elephant,0.35,3387_nse_dnn_0.35_elephant_10_n02504458_11130.JPEG
cornet-s,3,828,NaN,bottle,elephant,0.35,3388_nse_dnn_0.35_elephant_10_n02504458_666.JPEG
cornet-s,3,829,NaN,clock,elephant,0.35,3389_nse_dnn_0.35_elephant_10_n02504013_411.JPEG
cornet-s,3,830,NaN,bottle,elephant,0.35,3390_nse_dnn_0.35_elephant_10_n02504458_12175.JPEG
cornet-s,3,831,NaN,clock,bicycle,0.35,3391_nse_dnn_0.35_bicycle_10_n03792782_3591.JPEG
cornet-s,3,832,NaN,clock,bicycle,0.35,3392_nse_dnn_0.35_bicycle_10_n03792782_9512.JPEG
cornet-s,3,833,NaN,bottle,bicycle,0.35,3393_nse_dnn_0.35_bicycle_10_n03792782_30246.JPEG
cornet-s,3,834,NaN,bottle,bicycle,0.35,3394_nse_dnn_0.35_bicycle_10_n03792782_8945.JPEG
cornet-s,3,835,NaN,bottle,bicycle,0.35,3395_nse_dnn_0.35_bicycle_10_n03792782_11404.JPEG
cornet-s,3,836,NaN,bottle,bicycle,0.35,3396_nse_dnn_0.35_bicycle_10_n02835271_11906.JPEG
cornet-s,3,837,NaN,bottle,bicycle,0.35,3397_nse_dnn_0.35_bicycle_10_n03792782_6546.JPEG
cornet-s,3,838,NaN,bottle,bicycle,0.35,3398_nse_dnn_0.35_bicycle_10_n03792782_1394.JPEG
cornet-s,3,839,NaN,bottle,bicycle,0.35,3399_nse_dnn_0.35_bicycle_10_n02835271_6383.JPEG
cornet-s,3,840,NaN,bottle,bicycle,0.35,3400_nse_dnn_0.35_bicycle_10_n02835271_7228.JPEG
cornet-s,3,841,NaN,clock,airplane,0.35,3401_nse_dnn_0.35_airplane_10_n02690373_9317.JPEG
cornet-s,3,842,NaN,bottle,airplane,0.35,3402_nse_dnn_0.35_airplane_10_n02690373_5142.JPEG
cornet-s,3,843,NaN,bottle,airplane,0.35,3403_nse_dnn_0.35_airplane_10_n02690373_9181.JPEG
cornet-s,3,844,NaN,clock,airplane,0.35,3404_nse_dnn_0.35_airplane_10_n02690373_3074.JPEG
cornet-s,3,845,NaN,bottle,airplane,0.35,3405_nse_dnn_0.35_airplane_10_n02690373_3907.JPEG
cornet-s,3,846,NaN,bottle,airplane,0.35,3406_nse_dnn_0.35_airplane_10_n02690373_1492.JPEG
cornet-s,3,847,NaN,bottle,airplane,0.35,3407_nse_dnn_0.35_airplane_10_n02690373_5869.JPEG
cornet-s,3,848,NaN,clock,airplane,0.35,3408_nse_dnn_0.35_airplane_10_n02690373_1023.JPEG
cornet-s,3,849,NaN,clock,airplane,0.35,3409_nse_dnn_0.35_airplane_10_n02690373_1213.JPEG
cornet-s,3,850,NaN,bottle,airplane,0.35,3410_nse_dnn_0.35_airplane_10_n02690373_5773.JPEG
cornet-s,3,851,NaN,bottle,clock,0.35,3411_nse_dnn_0.35_clock_10_n03196217_10578.JPEG
cornet-s,3,852,NaN,elephant,clock,0.35,3412_nse_dnn_0.35_clock_10_n02708093_701.JPEG
cornet-s,3,853,NaN,clock,clock,0.35,3413_nse_dnn_0.35_clock_10_n04548280_4383.JPEG
cornet-s,3,854,NaN,clock,clock,0.35,3414_nse_dnn_0.35_clock_10_n02708093_6558.JPEG
cornet-s,3,855,NaN,clock,clock,0.35,3415_nse_dnn_0.35_clock_10_n04548280_8890.JPEG
cornet-s,3,856,NaN,clock,clock,0.35,3416_nse_dnn_0.35_clock_10_n02708093_6816.JPEG
cornet-s,3,857,NaN,knife,clock,0.35,3417_nse_dnn_0.35_clock_10_n03196217_4417.JPEG
cornet-s,3,858,NaN,bottle,clock,0.35,3418_nse_dnn_0.35_clock_10_n02708093_3062.JPEG
cornet-s,3,859,NaN,knife,clock,0.35,3419_nse_dnn_0.35_clock_10_n03196217_5089.JPEG
cornet-s,3,860,NaN,clock,clock,0.35,3420_nse_dnn_0.35_clock_10_n03196217_5.JPEG
cornet-s,3,861,NaN,knife,oven,0.35,3421_nse_dnn_0.35_oven_10_n04111531_4868.JPEG
cornet-s,3,862,NaN,knife,oven,0.35,3422_nse_dnn_0.35_oven_10_n04111531_15635.JPEG
cornet-s,3,863,NaN,clock,oven,0.35,3423_nse_dnn_0.35_oven_10_n04111531_23215.JPEG
cornet-s,3,864,NaN,bottle,oven,0.35,3424_nse_dnn_0.35_oven_10_n04111531_9334.JPEG
cornet-s,3,865,NaN,clock,oven,0.35,3425_nse_dnn_0.35_oven_10_n04111531_11265.JPEG
cornet-s,3,866,NaN,clock,oven,0.35,3426_nse_dnn_0.35_oven_10_n04111531_4375.JPEG
cornet-s,3,867,NaN,clock,oven,0.35,3427_nse_dnn_0.35_oven_10_n04111531_9939.JPEG
cornet-s,3,868,NaN,bottle,oven,0.35,3428_nse_dnn_0.35_oven_10_n04111531_6993.JPEG
cornet-s,3,869,NaN,bottle,oven,0.35,3429_nse_dnn_0.35_oven_10_n04111531_21733.JPEG
cornet-s,3,870,NaN,bottle,oven,0.35,3430_nse_dnn_0.35_oven_10_n04111531_22872.JPEG
cornet-s,3,871,NaN,clock,chair,0.35,3431_nse_dnn_0.35_chair_10_n02791124_3352.JPEG
cornet-s,3,872,NaN,clock,chair,0.35,3432_nse_dnn_0.35_chair_10_n04099969_2354.JPEG
cornet-s,3,873,NaN,bottle,chair,0.35,3433_nse_dnn_0.35_chair_10_n03376595_1731.JPEG
cornet-s,3,874,NaN,bottle,chair,0.35,3434_nse_dnn_0.35_chair_10_n03376595_15627.JPEG
cornet-s,3,875,NaN,bottle,chair,0.35,3435_nse_dnn_0.35_chair_10_n04099969_5674.JPEG
cornet-s,3,876,NaN,cat,chair,0.35,3436_nse_dnn_0.35_chair_10_n04099969_3485.JPEG
cornet-s,3,877,NaN,bottle,chair,0.35,3437_nse_dnn_0.35_chair_10_n04099969_250.JPEG
cornet-s,3,878,NaN,clock,chair,0.35,3438_nse_dnn_0.35_chair_10_n02791124_5868.JPEG
cornet-s,3,879,NaN,clock,chair,0.35,3439_nse_dnn_0.35_chair_10_n03376595_5152.JPEG
cornet-s,3,880,NaN,bottle,chair,0.35,3440_nse_dnn_0.35_chair_10_n04099969_6001.JPEG
cornet-s,3,881,NaN,bottle,bear,0.35,3441_nse_dnn_0.35_bear_10_n02133161_185.JPEG
cornet-s,3,882,NaN,clock,bear,0.35,3442_nse_dnn_0.35_bear_10_n02134084_5435.JPEG
cornet-s,3,883,NaN,bottle,bear,0.35,3443_nse_dnn_0.35_bear_10_n02132136_9430.JPEG
cornet-s,3,884,NaN,bottle,bear,0.35,3444_nse_dnn_0.35_bear_10_n02134418_3651.JPEG
cornet-s,3,885,NaN,bottle,bear,0.35,3445_nse_dnn_0.35_bear_10_n02134418_323.JPEG
cornet-s,3,886,NaN,clock,bear,0.35,3446_nse_dnn_0.35_bear_10_n02132136_8204.JPEG
cornet-s,3,887,NaN,bottle,bear,0.35,3447_nse_dnn_0.35_bear_10_n02134084_15017.JPEG
cornet-s,3,888,NaN,bottle,bear,0.35,3448_nse_dnn_0.35_bear_10_n02132136_131.JPEG
cornet-s,3,889,NaN,bottle,bear,0.35,3449_nse_dnn_0.35_bear_10_n02134418_2429.JPEG
cornet-s,3,890,NaN,bottle,bear,0.35,3450_nse_dnn_0.35_bear_10_n02133161_10329.JPEG
cornet-s,3,891,NaN,clock,boat,0.35,3451_nse_dnn_0.35_boat_10_n02951358_13454.JPEG
cornet-s,3,892,NaN,clock,boat,0.35,3452_nse_dnn_0.35_boat_10_n03344393_7398.JPEG
cornet-s,3,893,NaN,bottle,boat,0.35,3453_nse_dnn_0.35_boat_10_n03662601_27330.JPEG
cornet-s,3,894,NaN,clock,boat,0.35,3454_nse_dnn_0.35_boat_10_n03344393_6773.JPEG
cornet-s,3,895,NaN,chair,boat,0.35,3455_nse_dnn_0.35_boat_10_n03344393_6349.JPEG
cornet-s,3,896,NaN,chair,boat,0.35,3456_nse_dnn_0.35_boat_10_n04273569_883.JPEG
cornet-s,3,897,NaN,clock,boat,0.35,3457_nse_dnn_0.35_boat_10_n03662601_4147.JPEG
cornet-s,3,898,NaN,bottle,boat,0.35,3458_nse_dnn_0.35_boat_10_n03662601_22164.JPEG
cornet-s,3,899,NaN,clock,boat,0.35,3459_nse_dnn_0.35_boat_10_n02951358_12288.JPEG
cornet-s,3,900,NaN,bottle,boat,0.35,3460_nse_dnn_0.35_boat_10_n02951358_30629.JPEG
cornet-s,3,901,NaN,clock,cat,0.35,3461_nse_dnn_0.35_cat_10_n02125311_8701.JPEG
cornet-s,3,902,NaN,clock,cat,0.35,3462_nse_dnn_0.35_cat_10_n02123159_3333.JPEG
cornet-s,3,903,NaN,bottle,cat,0.35,3463_nse_dnn_0.35_cat_10_n02124075_13407.JPEG
cornet-s,3,904,NaN,clock,cat,0.35,3464_nse_dnn_0.35_cat_10_n02123045_7646.JPEG
cornet-s,3,905,NaN,bottle,cat,0.35,3465_nse_dnn_0.35_cat_10_n02123159_5706.JPEG
cornet-s,3,906,NaN,clock,cat,0.35,3466_nse_dnn_0.35_cat_10_n02123597_2888.JPEG
cornet-s,3,907,NaN,clock,cat,0.35,3467_nse_dnn_0.35_cat_10_n02125311_24614.JPEG
cornet-s,3,908,NaN,bottle,cat,0.35,3468_nse_dnn_0.35_cat_10_n02123394_432.JPEG
cornet-s,3,909,NaN,clock,cat,0.35,3469_nse_dnn_0.35_cat_10_n02125311_30349.JPEG
cornet-s,3,910,NaN,bottle,cat,0.35,3470_nse_dnn_0.35_cat_10_n02125311_13023.JPEG
cornet-s,3,911,NaN,clock,bottle,0.35,3471_nse_dnn_0.35_bottle_10_n03983396_1990.JPEG
cornet-s,3,912,NaN,clock,bottle,0.35,3472_nse_dnn_0.35_bottle_10_n04579145_5818.JPEG
cornet-s,3,913,NaN,clock,bottle,0.35,3473_nse_dnn_0.35_bottle_10_n04557648_4300.JPEG
cornet-s,3,914,NaN,boat,bottle,0.35,3474_nse_dnn_0.35_bottle_10_n04591713_16610.JPEG
cornet-s,3,915,NaN,bottle,bottle,0.35,3475_nse_dnn_0.35_bottle_10_n04560804_3051.JPEG
cornet-s,3,916,NaN,bottle,bottle,0.35,3476_nse_dnn_0.35_bottle_10_n03983396_2562.JPEG
cornet-s,3,917,NaN,bottle,bottle,0.35,3477_nse_dnn_0.35_bottle_10_n02823428_7570.JPEG
cornet-s,3,918,NaN,clock,bottle,0.35,3478_nse_dnn_0.35_bottle_10_n03937543_1695.JPEG
cornet-s,3,919,NaN,clock,bottle,0.35,3479_nse_dnn_0.35_bottle_10_n02823428_4145.JPEG
cornet-s,3,920,NaN,clock,bottle,0.35,3480_nse_dnn_0.35_bottle_10_n04579145_4898.JPEG
cornet-s,3,921,NaN,bottle,truck,0.35,3481_nse_dnn_0.35_truck_10_n03417042_5750.JPEG
cornet-s,3,922,NaN,bottle,truck,0.35,3482_nse_dnn_0.35_truck_10_n04467665_9041.JPEG
cornet-s,3,923,NaN,knife,truck,0.35,3483_nse_dnn_0.35_truck_10_n03796401_20641.JPEG
cornet-s,3,924,NaN,cat,truck,0.35,3484_nse_dnn_0.35_truck_10_n03417042_16446.JPEG
cornet-s,3,925,NaN,clock,truck,0.35,3485_nse_dnn_0.35_truck_10_n04467665_70477.JPEG
cornet-s,3,926,NaN,bottle,truck,0.35,3486_nse_dnn_0.35_truck_10_n04467665_11851.JPEG
cornet-s,3,927,NaN,clock,truck,0.35,3487_nse_dnn_0.35_truck_10_n04467665_5422.JPEG
cornet-s,3,928,NaN,clock,truck,0.35,3488_nse_dnn_0.35_truck_10_n03796401_8176.JPEG
cornet-s,3,929,NaN,chair,truck,0.35,3489_nse_dnn_0.35_truck_10_n03417042_4106.JPEG
cornet-s,3,930,NaN,bottle,truck,0.35,3490_nse_dnn_0.35_truck_10_n04467665_3212.JPEG
cornet-s,3,931,NaN,bottle,car,0.35,3491_nse_dnn_0.35_car_10_n04285008_14986.JPEG
cornet-s,3,932,NaN,bottle,car,0.35,3492_nse_dnn_0.35_car_10_n03100240_3208.JPEG
cornet-s,3,933,NaN,bottle,car,0.35,3493_nse_dnn_0.35_car_10_n02814533_53054.JPEG
cornet-s,3,934,NaN,bottle,car,0.35,3494_nse_dnn_0.35_car_10_n02814533_35386.JPEG
cornet-s,3,935,NaN,bottle,car,0.35,3495_nse_dnn_0.35_car_10_n04285008_12662.JPEG
cornet-s,3,936,NaN,clock,car,0.35,3496_nse_dnn_0.35_car_10_n03100240_16766.JPEG
cornet-s,3,937,NaN,bottle,car,0.35,3497_nse_dnn_0.35_car_10_n04285008_1661.JPEG
cornet-s,3,938,NaN,bottle,car,0.35,3498_nse_dnn_0.35_car_10_n03100240_9077.JPEG
cornet-s,3,939,NaN,bottle,car,0.35,3499_nse_dnn_0.35_car_10_n03100240_2776.JPEG
cornet-s,3,940,NaN,bottle,car,0.35,3500_nse_dnn_0.35_car_10_n02814533_3331.JPEG
cornet-s,3,941,NaN,bottle,bird,0.35,3501_nse_dnn_0.35_bird_10_n01532829_38445.JPEG
cornet-s,3,942,NaN,clock,bird,0.35,3502_nse_dnn_0.35_bird_10_n01860187_101.JPEG
cornet-s,3,943,NaN,clock,bird,0.35,3503_nse_dnn_0.35_bird_10_n01798484_9133.JPEG
cornet-s,3,944,NaN,clock,bird,0.35,3504_nse_dnn_0.35_bird_10_n02028035_3302.JPEG
cornet-s,3,945,NaN,bottle,bird,0.35,3505_nse_dnn_0.35_bird_10_n02009229_6276.JPEG
cornet-s,3,946,NaN,bottle,bird,0.35,3506_nse_dnn_0.35_bird_10_n01829413_8434.JPEG
cornet-s,3,947,NaN,bottle,bird,0.35,3507_nse_dnn_0.35_bird_10_n01843383_5210.JPEG
cornet-s,3,948,NaN,bottle,bird,0.35,3508_nse_dnn_0.35_bird_10_n01532829_2619.JPEG
cornet-s,3,949,NaN,bottle,bird,0.35,3509_nse_dnn_0.35_bird_10_n01622779_4719.JPEG
cornet-s,3,950,NaN,bottle,bird,0.35,3510_nse_dnn_0.35_bird_10_n01514859_7554.JPEG
cornet-s,3,951,NaN,boat,dog,0.35,3511_nse_dnn_0.35_dog_10_n02101556_8447.JPEG
cornet-s,3,952,NaN,clock,dog,0.35,3512_nse_dnn_0.35_dog_10_n02102177_415.JPEG
cornet-s,3,953,NaN,cat,dog,0.35,3513_nse_dnn_0.35_dog_10_n02090721_2292.JPEG
cornet-s,3,954,NaN,clock,dog,0.35,3514_nse_dnn_0.35_dog_10_n02102040_337.JPEG
cornet-s,3,955,NaN,bottle,dog,0.35,3515_nse_dnn_0.35_dog_10_n02111129_4060.JPEG
cornet-s,3,956,NaN,bottle,dog,0.35,3516_nse_dnn_0.35_dog_10_n02110063_16879.JPEG
cornet-s,3,957,NaN,clock,dog,0.35,3517_nse_dnn_0.35_dog_10_n02086240_10706.JPEG
cornet-s,3,958,NaN,bottle,dog,0.35,3518_nse_dnn_0.35_dog_10_n02112018_2458.JPEG
cornet-s,3,959,NaN,bottle,dog,0.35,3519_nse_dnn_0.35_dog_10_n02088364_1089.JPEG
cornet-s,3,960,NaN,clock,dog,0.35,3520_nse_dnn_0.35_dog_10_n02112350_2615.JPEG
cornet-s,3,961,NaN,bottle,knife,0.60,3521_nse_dnn_0.60_knife_10_n03041632_99460.JPEG
cornet-s,3,962,NaN,clock,knife,0.60,3522_nse_dnn_0.60_knife_10_n03041632_33075.JPEG
cornet-s,3,963,NaN,clock,knife,0.60,3523_nse_dnn_0.60_knife_10_n03041632_45636.JPEG
cornet-s,3,964,NaN,clock,knife,0.60,3524_nse_dnn_0.60_knife_10_n03041632_26933.JPEG
cornet-s,3,965,NaN,clock,knife,0.60,3525_nse_dnn_0.60_knife_10_n03041632_4318.JPEG
cornet-s,3,966,NaN,clock,knife,0.60,3526_nse_dnn_0.60_knife_10_n03041632_46112.JPEG
cornet-s,3,967,NaN,clock,knife,0.60,3527_nse_dnn_0.60_knife_10_n03041632_9635.JPEG
cornet-s,3,968,NaN,bottle,knife,0.60,3528_nse_dnn_0.60_knife_10_n03041632_32350.JPEG
cornet-s,3,969,NaN,clock,knife,0.60,3529_nse_dnn_0.60_knife_10_n03041632_11741.JPEG
cornet-s,3,970,NaN,clock,knife,0.60,3530_nse_dnn_0.60_knife_10_n03041632_25479.JPEG
cornet-s,3,971,NaN,bottle,keyboard,0.60,3531_nse_dnn_0.60_keyboard_10_n04505470_5007.JPEG
cornet-s,3,972,NaN,clock,keyboard,0.60,3532_nse_dnn_0.60_keyboard_10_n04505470_4685.JPEG
cornet-s,3,973,NaN,bottle,keyboard,0.60,3533_nse_dnn_0.60_keyboard_10_n04505470_5068.JPEG
cornet-s,3,974,NaN,clock,keyboard,0.60,3534_nse_dnn_0.60_keyboard_10_n03085013_24568.JPEG
cornet-s,3,975,NaN,bottle,keyboard,0.60,3535_nse_dnn_0.60_keyboard_10_n04505470_9762.JPEG
cornet-s,3,976,NaN,clock,keyboard,0.60,3536_nse_dnn_0.60_keyboard_10_n04505470_8364.JPEG
cornet-s,3,977,NaN,clock,keyboard,0.60,3537_nse_dnn_0.60_keyboard_10_n03085013_18830.JPEG
cornet-s,3,978,NaN,clock,keyboard,0.60,3538_nse_dnn_0.60_keyboard_10_n03085013_919.JPEG
cornet-s,3,979,NaN,bottle,keyboard,0.60,3539_nse_dnn_0.60_keyboard_10_n03085013_10827.JPEG
cornet-s,3,980,NaN,clock,keyboard,0.60,3540_nse_dnn_0.60_keyboard_10_n03085013_19585.JPEG
cornet-s,3,981,NaN,bottle,elephant,0.60,3541_nse_dnn_0.60_elephant_10_n02504013_237.JPEG
cornet-s,3,982,NaN,clock,elephant,0.60,3542_nse_dnn_0.60_elephant_10_n02504013_5963.JPEG
cornet-s,3,983,NaN,bottle,elephant,0.60,3543_nse_dnn_0.60_elephant_10_n02504458_2339.JPEG
cornet-s,3,984,NaN,clock,elephant,0.60,3544_nse_dnn_0.60_elephant_10_n02504013_7611.JPEG
cornet-s,3,985,NaN,clock,elephant,0.60,3545_nse_dnn_0.60_elephant_10_n02504458_7477.JPEG
cornet-s,3,986,NaN,clock,elephant,0.60,3546_nse_dnn_0.60_elephant_10_n02504458_8052.JPEG
cornet-s,3,987,NaN,bottle,elephant,0.60,3547_nse_dnn_0.60_elephant_10_n02504458_1971.JPEG
cornet-s,3,988,NaN,clock,elephant,0.60,3548_nse_dnn_0.60_elephant_10_n02504458_6930.JPEG
cornet-s,3,989,NaN,bottle,elephant,0.60,3549_nse_dnn_0.60_elephant_10_n02504013_10802.JPEG
cornet-s,3,990,NaN,clock,elephant,0.60,3550_nse_dnn_0.60_elephant_10_n02504458_5337.JPEG
cornet-s,3,991,NaN,bottle,bicycle,0.60,3551_nse_dnn_0.60_bicycle_10_n02835271_664.JPEG
cornet-s,3,992,NaN,bottle,bicycle,0.60,3552_nse_dnn_0.60_bicycle_10_n03792782_5578.JPEG
cornet-s,3,993,NaN,clock,bicycle,0.60,3553_nse_dnn_0.60_bicycle_10_n02835271_10827.JPEG
cornet-s,3,994,NaN,bottle,bicycle,0.60,3554_nse_dnn_0.60_bicycle_10_n03792782_442.JPEG
cornet-s,3,995,NaN,bottle,bicycle,0.60,3555_nse_dnn_0.60_bicycle_10_n02835271_22739.JPEG
cornet-s,3,996,NaN,clock,bicycle,0.60,3556_nse_dnn_0.60_bicycle_10_n03792782_1540.JPEG
cornet-s,3,997,NaN,bottle,bicycle,0.60,3557_nse_dnn_0.60_bicycle_10_n02835271_9051.JPEG
cornet-s,3,998,NaN,bottle,bicycle,0.60,3558_nse_dnn_0.60_bicycle_10_n02835271_6930.JPEG
cornet-s,3,999,NaN,bottle,bicycle,0.60,3559_nse_dnn_0.60_bicycle_10_n02835271_3990.JPEG
cornet-s,3,1000,NaN,clock,bicycle,0.60,3560_nse_dnn_0.60_bicycle_10_n03792782_42978.JPEG
cornet-s,3,1001,NaN,clock,airplane,0.60,3561_nse_dnn_0.60_airplane_10_n02690373_1821.JPEG
cornet-s,3,1002,NaN,clock,airplane,0.60,3562_nse_dnn_0.60_airplane_10_n02690373_243.JPEG
cornet-s,3,1003,NaN,clock,airplane,0.60,3563_nse_dnn_0.60_airplane_10_n02690373_5177.JPEG
cornet-s,3,1004,NaN,bottle,airplane,0.60,3564_nse_dnn_0.60_airplane_10_n02690373_8524.JPEG
cornet-s,3,1005,NaN,clock,airplane,0.60,3565_nse_dnn_0.60_airplane_10_n02690373_6942.JPEG
cornet-s,3,1006,NaN,clock,airplane,0.60,3566_nse_dnn_0.60_airplane_10_n02690373_7915.JPEG
cornet-s,3,1007,NaN,clock,airplane,0.60,3567_nse_dnn_0.60_airplane_10_n02690373_883.JPEG
cornet-s,3,1008,NaN,clock,airplane,0.60,3568_nse_dnn_0.60_airplane_10_n02690373_2619.JPEG
cornet-s,3,1009,NaN,clock,airplane,0.60,3569_nse_dnn_0.60_airplane_10_n02690373_8666.JPEG
cornet-s,3,1010,NaN,bottle,airplane,0.60,3570_nse_dnn_0.60_airplane_10_n02690373_2038.JPEG
cornet-s,3,1011,NaN,clock,clock,0.60,3571_nse_dnn_0.60_clock_10_n04548280_21.JPEG
cornet-s,3,1012,NaN,clock,clock,0.60,3572_nse_dnn_0.60_clock_10_n03196217_289.JPEG
cornet-s,3,1013,NaN,clock,clock,0.60,3573_nse_dnn_0.60_clock_10_n03196217_1044.JPEG
cornet-s,3,1014,NaN,clock,clock,0.60,3574_nse_dnn_0.60_clock_10_n04548280_7110.JPEG
cornet-s,3,1015,NaN,clock,clock,0.60,3575_nse_dnn_0.60_clock_10_n02708093_6766.JPEG
cornet-s,3,1016,NaN,clock,clock,0.60,3576_nse_dnn_0.60_clock_10_n03196217_4254.JPEG
cornet-s,3,1017,NaN,bottle,clock,0.60,3577_nse_dnn_0.60_clock_10_n02708093_31.JPEG
cornet-s,3,1018,NaN,clock,clock,0.60,3578_nse_dnn_0.60_clock_10_n02708093_6918.JPEG
cornet-s,3,1019,NaN,clock,clock,0.60,3579_nse_dnn_0.60_clock_10_n02708093_8388.JPEG
cornet-s,3,1020,NaN,clock,clock,0.60,3580_nse_dnn_0.60_clock_10_n03196217_4286.JPEG
cornet-s,3,1021,NaN,bottle,oven,0.60,3581_nse_dnn_0.60_oven_10_n04111531_1556.JPEG
cornet-s,3,1022,NaN,bottle,oven,0.60,3582_nse_dnn_0.60_oven_10_n04111531_8750.JPEG
cornet-s,3,1023,NaN,clock,oven,0.60,3583_nse_dnn_0.60_oven_10_n04111531_3202.JPEG
cornet-s,3,1024,NaN,clock,oven,0.60,3584_nse_dnn_0.60_oven_10_n04111531_20914.JPEG
cornet-s,3,1025,NaN,clock,oven,0.60,3585_nse_dnn_0.60_oven_10_n04111531_1398.JPEG
cornet-s,3,1026,NaN,bottle,oven,0.60,3586_nse_dnn_0.60_oven_10_n04111531_2074.JPEG
cornet-s,3,1027,NaN,bottle,oven,0.60,3587_nse_dnn_0.60_oven_10_n04111531_20591.JPEG
cornet-s,3,1028,NaN,bottle,oven,0.60,3588_nse_dnn_0.60_oven_10_n04111531_1938.JPEG
cornet-s,3,1029,NaN,clock,oven,0.60,3589_nse_dnn_0.60_oven_10_n04111531_1488.JPEG
cornet-s,3,1030,NaN,bottle,oven,0.60,3590_nse_dnn_0.60_oven_10_n04111531_4346.JPEG
cornet-s,3,1031,NaN,bottle,chair,0.60,3591_nse_dnn_0.60_chair_10_n02791124_3570.JPEG
cornet-s,3,1032,NaN,bottle,chair,0.60,3592_nse_dnn_0.60_chair_10_n04099969_5396.JPEG
cornet-s,3,1033,NaN,bottle,chair,0.60,3593_nse_dnn_0.60_chair_10_n04429376_14744.JPEG
cornet-s,3,1034,NaN,bottle,chair,0.60,3594_nse_dnn_0.60_chair_10_n04099969_12793.JPEG
cornet-s,3,1035,NaN,clock,chair,0.60,3595_nse_dnn_0.60_chair_10_n04099969_3723.JPEG
cornet-s,3,1036,NaN,bottle,chair,0.60,3596_nse_dnn_0.60_chair_10_n04429376_28082.JPEG
cornet-s,3,1037,NaN,bottle,chair,0.60,3597_nse_dnn_0.60_chair_10_n03376595_3195.JPEG
cornet-s,3,1038,NaN,bottle,chair,0.60,3598_nse_dnn_0.60_chair_10_n03376595_9885.JPEG
cornet-s,3,1039,NaN,clock,chair,0.60,3599_nse_dnn_0.60_chair_10_n04099969_1856.JPEG
cornet-s,3,1040,NaN,bottle,chair,0.60,3600_nse_dnn_0.60_chair_10_n03376595_1047.JPEG
cornet-s,3,1041,NaN,clock,bear,0.60,3601_nse_dnn_0.60_bear_10_n02134418_625.JPEG
cornet-s,3,1042,NaN,clock,bear,0.60,3602_nse_dnn_0.60_bear_10_n02133161_9583.JPEG
cornet-s,3,1043,NaN,clock,bear,0.60,3603_nse_dnn_0.60_bear_10_n02133161_1446.JPEG
cornet-s,3,1044,NaN,bottle,bear,0.60,3604_nse_dnn_0.60_bear_10_n02134418_28122.JPEG
cornet-s,3,1045,NaN,clock,bear,0.60,3605_nse_dnn_0.60_bear_10_n02134084_20605.JPEG
cornet-s,3,1046,NaN,bottle,bear,0.60,3606_nse_dnn_0.60_bear_10_n02134418_5085.JPEG
cornet-s,3,1047,NaN,clock,bear,0.60,3607_nse_dnn_0.60_bear_10_n02134084_20577.JPEG
cornet-s,3,1048,NaN,bottle,bear,0.60,3608_nse_dnn_0.60_bear_10_n02133161_3050.JPEG
cornet-s,3,1049,NaN,bottle,bear,0.60,3609_nse_dnn_0.60_bear_10_n02134418_1245.JPEG
cornet-s,3,1050,NaN,clock,bear,0.60,3610_nse_dnn_0.60_bear_10_n02134418_6172.JPEG
cornet-s,3,1051,NaN,clock,boat,0.60,3611_nse_dnn_0.60_boat_10_n02951358_3451.JPEG
cornet-s,3,1052,NaN,clock,boat,0.60,3612_nse_dnn_0.60_boat_10_n04273569_7909.JPEG
cornet-s,3,1053,NaN,clock,boat,0.60,3613_nse_dnn_0.60_boat_10_n04273569_24087.JPEG
cornet-s,3,1054,NaN,clock,boat,0.60,3614_nse_dnn_0.60_boat_10_n02951358_1123.JPEG
cornet-s,3,1055,NaN,clock,boat,0.60,3615_nse_dnn_0.60_boat_10_n02951358_15252.JPEG
cornet-s,3,1056,NaN,clock,boat,0.60,3616_nse_dnn_0.60_boat_10_n04612504_24342.JPEG
cornet-s,3,1057,NaN,bottle,boat,0.60,3617_nse_dnn_0.60_boat_10_n03662601_28399.JPEG
cornet-s,3,1058,NaN,bottle,boat,0.60,3618_nse_dnn_0.60_boat_10_n04612504_17104.JPEG
cornet-s,3,1059,NaN,clock,boat,0.60,3619_nse_dnn_0.60_boat_10_n03344393_13397.JPEG
cornet-s,3,1060,NaN,clock,boat,0.60,3620_nse_dnn_0.60_boat_10_n03344393_10152.JPEG
cornet-s,3,1061,NaN,bottle,cat,0.60,3621_nse_dnn_0.60_cat_10_n02123045_10893.JPEG
cornet-s,3,1062,NaN,bottle,cat,0.60,3622_nse_dnn_0.60_cat_10_n02123045_5525.JPEG
cornet-s,3,1063,NaN,clock,cat,0.60,3623_nse_dnn_0.60_cat_10_n02124075_5623.JPEG
cornet-s,3,1064,NaN,clock,cat,0.60,3624_nse_dnn_0.60_cat_10_n02123597_1708.JPEG
cornet-s,3,1065,NaN,clock,cat,0.60,3625_nse_dnn_0.60_cat_10_n02123597_22587.JPEG
cornet-s,3,1066,NaN,clock,cat,0.60,3626_nse_dnn_0.60_cat_10_n02123045_12117.JPEG
cornet-s,3,1067,NaN,clock,cat,0.60,3627_nse_dnn_0.60_cat_10_n02123394_2013.JPEG
cornet-s,3,1068,NaN,clock,cat,0.60,3628_nse_dnn_0.60_cat_10_n02123394_2553.JPEG
cornet-s,3,1069,NaN,bottle,cat,0.60,3629_nse_dnn_0.60_cat_10_n02123045_4272.JPEG
cornet-s,3,1070,NaN,clock,cat,0.60,3630_nse_dnn_0.60_cat_10_n02123597_1257.JPEG
cornet-s,3,1071,NaN,clock,bottle,0.60,3631_nse_dnn_0.60_bottle_10_n03937543_245.JPEG
cornet-s,3,1072,NaN,clock,bottle,0.60,3632_nse_dnn_0.60_bottle_10_n04557648_2231.JPEG
cornet-s,3,1073,NaN,clock,bottle,0.60,3633_nse_dnn_0.60_bottle_10_n04557648_10551.JPEG
cornet-s,3,1074,NaN,bottle,bottle,0.60,3634_nse_dnn_0.60_bottle_10_n04557648_1271.JPEG
cornet-s,3,1075,NaN,clock,bottle,0.60,3635_nse_dnn_0.60_bottle_10_n04591713_6984.JPEG
cornet-s,3,1076,NaN,bottle,bottle,0.60,3636_nse_dnn_0.60_bottle_10_n03983396_3024.JPEG
cornet-s,3,1077,NaN,bottle,bottle,0.60,3637_nse_dnn_0.60_bottle_10_n03937543_1428.JPEG
cornet-s,3,1078,NaN,bottle,bottle,0.60,3638_nse_dnn_0.60_bottle_10_n04579145_3758.JPEG
cornet-s,3,1079,NaN,bottle,bottle,0.60,3639_nse_dnn_0.60_bottle_10_n03937543_1021.JPEG
cornet-s,3,1080,NaN,bottle,bottle,0.60,3640_nse_dnn_0.60_bottle_10_n03937543_3304.JPEG
cornet-s,3,1081,NaN,clock,truck,0.60,3641_nse_dnn_0.60_truck_10_n04467665_35146.JPEG
cornet-s,3,1082,NaN,bottle,truck,0.60,3642_nse_dnn_0.60_truck_10_n04467665_1054.JPEG
cornet-s,3,1083,NaN,bottle,truck,0.60,3643_nse_dnn_0.60_truck_10_n04467665_4239.JPEG
cornet-s,3,1084,NaN,clock,truck,0.60,3644_nse_dnn_0.60_truck_10_n03417042_2315.JPEG
cornet-s,3,1085,NaN,bottle,truck,0.60,3645_nse_dnn_0.60_truck_10_n03417042_26951.JPEG
cornet-s,3,1086,NaN,clock,truck,0.60,3646_nse_dnn_0.60_truck_10_n04467665_23071.JPEG
cornet-s,3,1087,NaN,clock,truck,0.60,3647_nse_dnn_0.60_truck_10_n04467665_66065.JPEG
cornet-s,3,1088,NaN,clock,truck,0.60,3648_nse_dnn_0.60_truck_10_n04467665_11776.JPEG
cornet-s,3,1089,NaN,bottle,truck,0.60,3649_nse_dnn_0.60_truck_10_n03417042_19958.JPEG
cornet-s,3,1090,NaN,bottle,truck,0.60,3650_nse_dnn_0.60_truck_10_n03796401_23886.JPEG
cornet-s,3,1091,NaN,clock,car,0.60,3651_nse_dnn_0.60_car_10_n02814533_24392.JPEG
cornet-s,3,1092,NaN,bottle,car,0.60,3652_nse_dnn_0.60_car_10_n03100240_898.JPEG
cornet-s,3,1093,NaN,clock,car,0.60,3653_nse_dnn_0.60_car_10_n04285008_7542.JPEG
cornet-s,3,1094,NaN,clock,car,0.60,3654_nse_dnn_0.60_car_10_n02814533_80304.JPEG
cornet-s,3,1095,NaN,bottle,car,0.60,3655_nse_dnn_0.60_car_10_n02814533_27432.JPEG
cornet-s,3,1096,NaN,bottle,car,0.60,3656_nse_dnn_0.60_car_10_n04285008_6899.JPEG
cornet-s,3,1097,NaN,clock,car,0.60,3657_nse_dnn_0.60_car_10_n03100240_5489.JPEG
cornet-s,3,1098,NaN,clock,car,0.60,3658_nse_dnn_0.60_car_10_n03100240_13732.JPEG
cornet-s,3,1099,NaN,clock,car,0.60,3659_nse_dnn_0.60_car_10_n02814533_68178.JPEG
cornet-s,3,1100,NaN,bottle,car,0.60,3660_nse_dnn_0.60_car_10_n04285008_4930.JPEG
cornet-s,3,1101,NaN,clock,bird,0.60,3661_nse_dnn_0.60_bird_10_n01828970_4947.JPEG
cornet-s,3,1102,NaN,clock,bird,0.60,3662_nse_dnn_0.60_bird_10_n02033041_2682.JPEG
cornet-s,3,1103,NaN,clock,bird,0.60,3663_nse_dnn_0.60_bird_10_n02007558_6646.JPEG
cornet-s,3,1104,NaN,bottle,bird,0.60,3664_nse_dnn_0.60_bird_10_n02017213_15224.JPEG
cornet-s,3,1105,NaN,clock,bird,0.60,3665_nse_dnn_0.60_bird_10_n01796340_11412.JPEG
cornet-s,3,1106,NaN,clock,bird,0.60,3666_nse_dnn_0.60_bird_10_n01622779_10193.JPEG
cornet-s,3,1107,NaN,clock,bird,0.60,3667_nse_dnn_0.60_bird_10_n01582220_9649.JPEG
cornet-s,3,1108,NaN,bottle,bird,0.60,3668_nse_dnn_0.60_bird_10_n02013706_2681.JPEG
cornet-s,3,1109,NaN,bottle,bird,0.60,3669_nse_dnn_0.60_bird_10_n02002556_1971.JPEG
cornet-s,3,1110,NaN,bottle,bird,0.60,3670_nse_dnn_0.60_bird_10_n01622779_3876.JPEG
cornet-s,3,1111,NaN,bottle,dog,0.60,3671_nse_dnn_0.60_dog_10_n02093754_3405.JPEG
cornet-s,3,1112,NaN,bottle,dog,0.60,3672_nse_dnn_0.60_dog_10_n02110063_13626.JPEG
cornet-s,3,1113,NaN,clock,dog,0.60,3673_nse_dnn_0.60_dog_10_n02101006_7594.JPEG
cornet-s,3,1114,NaN,clock,dog,0.60,3674_nse_dnn_0.60_dog_10_n02091244_7619.JPEG
cornet-s,3,1115,NaN,clock,dog,0.60,3675_nse_dnn_0.60_dog_10_n02111500_5879.JPEG
cornet-s,3,1116,NaN,clock,dog,0.60,3676_nse_dnn_0.60_dog_10_n02097474_17890.JPEG
cornet-s,3,1117,NaN,bottle,dog,0.60,3677_nse_dnn_0.60_dog_10_n02109961_21790.JPEG
cornet-s,3,1118,NaN,bottle,dog,0.60,3678_nse_dnn_0.60_dog_10_n02101006_11338.JPEG
cornet-s,3,1119,NaN,bottle,dog,0.60,3679_nse_dnn_0.60_dog_10_n02108000_2843.JPEG
cornet-s,3,1120,NaN,bottle,dog,0.60,3680_nse_dnn_0.60_dog_10_n02102973_5198.JPEG
cornet-s,3,1121,NaN,clock,knife,0.90,3681_nse_dnn_0.90_knife_10_n03041632_62810.JPEG
cornet-s,3,1122,NaN,clock,knife,0.90,3682_nse_dnn_0.90_knife_10_n03041632_10263.JPEG
cornet-s,3,1123,NaN,clock,knife,0.90,3683_nse_dnn_0.90_knife_10_n03041632_4260.JPEG
cornet-s,3,1124,NaN,clock,knife,0.90,3684_nse_dnn_0.90_knife_10_n03041632_41493.JPEG
cornet-s,3,1125,NaN,clock,knife,0.90,3685_nse_dnn_0.90_knife_10_n03041632_2386.JPEG
cornet-s,3,1126,NaN,clock,knife,0.90,3686_nse_dnn_0.90_knife_10_n03041632_32459.JPEG
cornet-s,3,1127,NaN,clock,knife,0.90,3687_nse_dnn_0.90_knife_10_n03041632_362.JPEG
cornet-s,3,1128,NaN,clock,knife,0.90,3688_nse_dnn_0.90_knife_10_n03041632_32377.JPEG
cornet-s,3,1129,NaN,clock,knife,0.90,3689_nse_dnn_0.90_knife_10_n03041632_29940.JPEG
cornet-s,3,1130,NaN,clock,knife,0.90,3690_nse_dnn_0.90_knife_10_n03041632_13465.JPEG
cornet-s,3,1131,NaN,clock,keyboard,0.90,3691_nse_dnn_0.90_keyboard_10_n03085013_23731.JPEG
cornet-s,3,1132,NaN,clock,keyboard,0.90,3692_nse_dnn_0.90_keyboard_10_n03085013_18672.JPEG
cornet-s,3,1133,NaN,clock,keyboard,0.90,3693_nse_dnn_0.90_keyboard_10_n03085013_8867.JPEG
cornet-s,3,1134,NaN,clock,keyboard,0.90,3694_nse_dnn_0.90_keyboard_10_n03085013_24026.JPEG
cornet-s,3,1135,NaN,clock,keyboard,0.90,3695_nse_dnn_0.90_keyboard_10_n03085013_7058.JPEG
cornet-s,3,1136,NaN,clock,keyboard,0.90,3696_nse_dnn_0.90_keyboard_10_n04505470_8782.JPEG
cornet-s,3,1137,NaN,clock,keyboard,0.90,3697_nse_dnn_0.90_keyboard_10_n03085013_21166.JPEG
cornet-s,3,1138,NaN,clock,keyboard,0.90,3698_nse_dnn_0.90_keyboard_10_n04505470_3258.JPEG
cornet-s,3,1139,NaN,clock,keyboard,0.90,3699_nse_dnn_0.90_keyboard_10_n03085013_26171.JPEG
cornet-s,3,1140,NaN,clock,keyboard,0.90,3700_nse_dnn_0.90_keyboard_10_n04505470_284.JPEG
cornet-s,3,1141,NaN,clock,elephant,0.90,3701_nse_dnn_0.90_elephant_10_n02504458_6817.JPEG
cornet-s,3,1142,NaN,clock,elephant,0.90,3702_nse_dnn_0.90_elephant_10_n02504458_7123.JPEG
cornet-s,3,1143,NaN,clock,elephant,0.90,3703_nse_dnn_0.90_elephant_10_n02504458_6484.JPEG
cornet-s,3,1144,NaN,clock,elephant,0.90,3704_nse_dnn_0.90_elephant_10_n02504013_5021.JPEG
cornet-s,3,1145,NaN,clock,elephant,0.90,3705_nse_dnn_0.90_elephant_10_n02504013_10429.JPEG
cornet-s,3,1146,NaN,clock,elephant,0.90,3706_nse_dnn_0.90_elephant_10_n02504013_5503.JPEG
cornet-s,3,1147,NaN,clock,elephant,0.90,3707_nse_dnn_0.90_elephant_10_n02504458_35.JPEG
cornet-s,3,1148,NaN,clock,elephant,0.90,3708_nse_dnn_0.90_elephant_10_n02504458_2583.JPEG
cornet-s,3,1149,NaN,clock,elephant,0.90,3709_nse_dnn_0.90_elephant_10_n02504013_7079.JPEG
cornet-s,3,1150,NaN,clock,elephant,0.90,3710_nse_dnn_0.90_elephant_10_n02504458_1519.JPEG
cornet-s,3,1151,NaN,clock,bicycle,0.90,3711_nse_dnn_0.90_bicycle_10_n03792782_6419.JPEG
cornet-s,3,1152,NaN,clock,bicycle,0.90,3712_nse_dnn_0.90_bicycle_10_n03792782_26383.JPEG
cornet-s,3,1153,NaN,clock,bicycle,0.90,3713_nse_dnn_0.90_bicycle_10_n03792782_14557.JPEG
cornet-s,3,1154,NaN,clock,bicycle,0.90,3714_nse_dnn_0.90_bicycle_10_n03792782_35912.JPEG
cornet-s,3,1155,NaN,clock,bicycle,0.90,3715_nse_dnn_0.90_bicycle_10_n02835271_192.JPEG
cornet-s,3,1156,NaN,clock,bicycle,0.90,3716_nse_dnn_0.90_bicycle_10_n02835271_9204.JPEG
cornet-s,3,1157,NaN,clock,bicycle,0.90,3717_nse_dnn_0.90_bicycle_10_n03792782_4659.JPEG
cornet-s,3,1158,NaN,clock,bicycle,0.90,3718_nse_dnn_0.90_bicycle_10_n02835271_11851.JPEG
cornet-s,3,1159,NaN,clock,bicycle,0.90,3719_nse_dnn_0.90_bicycle_10_n03792782_4213.JPEG
cornet-s,3,1160,NaN,clock,bicycle,0.90,3720_nse_dnn_0.90_bicycle_10_n02835271_2755.JPEG
cornet-s,3,1161,NaN,clock,airplane,0.90,3721_nse_dnn_0.90_airplane_10_n02690373_10723.JPEG
cornet-s,3,1162,NaN,clock,airplane,0.90,3722_nse_dnn_0.90_airplane_10_n02690373_3139.JPEG
cornet-s,3,1163,NaN,clock,airplane,0.90,3723_nse_dnn_0.90_airplane_10_n02690373_866.JPEG
cornet-s,3,1164,NaN,clock,airplane,0.90,3724_nse_dnn_0.90_airplane_10_n02690373_8996.JPEG
cornet-s,3,1165,NaN,clock,airplane,0.90,3725_nse_dnn_0.90_airplane_10_n02690373_9946.JPEG
cornet-s,3,1166,NaN,clock,airplane,0.90,3726_nse_dnn_0.90_airplane_10_n02690373_9991.JPEG
cornet-s,3,1167,NaN,clock,airplane,0.90,3727_nse_dnn_0.90_airplane_10_n02690373_6834.JPEG
cornet-s,3,1168,NaN,clock,airplane,0.90,3728_nse_dnn_0.90_airplane_10_n02690373_10769.JPEG
cornet-s,3,1169,NaN,clock,airplane,0.90,3729_nse_dnn_0.90_airplane_10_n02690373_13617.JPEG
cornet-s,3,1170,NaN,clock,airplane,0.90,3730_nse_dnn_0.90_airplane_10_n02690373_8653.JPEG
cornet-s,3,1171,NaN,clock,clock,0.90,3731_nse_dnn_0.90_clock_10_n04548280_338.JPEG
cornet-s,3,1172,NaN,clock,clock,0.90,3732_nse_dnn_0.90_clock_10_n03196217_9231.JPEG
cornet-s,3,1173,NaN,clock,clock,0.90,3733_nse_dnn_0.90_clock_10_n03196217_2246.JPEG
cornet-s,3,1174,NaN,clock,clock,0.90,3734_nse_dnn_0.90_clock_10_n04548280_10673.JPEG
cornet-s,3,1175,NaN,clock,clock,0.90,3735_nse_dnn_0.90_clock_10_n04548280_4305.JPEG
cornet-s,3,1176,NaN,clock,clock,0.90,3736_nse_dnn_0.90_clock_10_n02708093_7883.JPEG
cornet-s,3,1177,NaN,clock,clock,0.90,3737_nse_dnn_0.90_clock_10_n02708093_1654.JPEG
cornet-s,3,1178,NaN,clock,clock,0.90,3738_nse_dnn_0.90_clock_10_n02708093_1267.JPEG
cornet-s,3,1179,NaN,clock,clock,0.90,3739_nse_dnn_0.90_clock_10_n04548280_1240.JPEG
cornet-s,3,1180,NaN,clock,clock,0.90,3740_nse_dnn_0.90_clock_10_n04548280_14887.JPEG
cornet-s,3,1181,NaN,clock,oven,0.90,3741_nse_dnn_0.90_oven_10_n04111531_22517.JPEG
cornet-s,3,1182,NaN,clock,oven,0.90,3742_nse_dnn_0.90_oven_10_n04111531_2473.JPEG
cornet-s,3,1183,NaN,clock,oven,0.90,3743_nse_dnn_0.90_oven_10_n04111531_15317.JPEG
cornet-s,3,1184,NaN,clock,oven,0.90,3744_nse_dnn_0.90_oven_10_n04111531_6134.JPEG
cornet-s,3,1185,NaN,clock,oven,0.90,3745_nse_dnn_0.90_oven_10_n04111531_12702.JPEG
cornet-s,3,1186,NaN,clock,oven,0.90,3746_nse_dnn_0.90_oven_10_n04111531_21896.JPEG
cornet-s,3,1187,NaN,clock,oven,0.90,3747_nse_dnn_0.90_oven_10_n04111531_4955.JPEG
cornet-s,3,1188,NaN,clock,oven,0.90,3748_nse_dnn_0.90_oven_10_n04111531_2677.JPEG
cornet-s,3,1189,NaN,clock,oven,0.90,3749_nse_dnn_0.90_oven_10_n04111531_409.JPEG
cornet-s,3,1190,NaN,clock,oven,0.90,3750_nse_dnn_0.90_oven_10_n04111531_15649.JPEG
