subj,session,trial,rt,object_response,category,condition,imagename
cornet-s,1,1,NaN,knife,knife,1-0-10,0001_eid_dnn_1-0-10_knife_10_n03041632_27134.JPEG
cornet-s,1,2,NaN,knife,knife,1-0-10,0002_eid_dnn_1-0-10_knife_10_n03041632_16206.JPEG
cornet-s,1,3,NaN,knife,knife,1-0-10,0003_eid_dnn_1-0-10_knife_10_n03041632_32774.JPEG
cornet-s,1,4,NaN,knife,knife,1-0-10,0004_eid_dnn_1-0-10_knife_10_n03041632_8540.JPEG
cornet-s,1,5,NaN,knife,knife,1-0-10,0005_eid_dnn_1-0-10_knife_10_n03041632_18236.JPEG
cornet-s,1,6,NaN,knife,knife,1-0-10,0006_eid_dnn_1-0-10_knife_10_n03041632_44133.JPEG
cornet-s,1,7,NaN,knife,knife,1-0-10,0007_eid_dnn_1-0-10_knife_10_n03041632_17349.JPEG
cornet-s,1,8,NaN,knife,knife,1-0-10,0008_eid_dnn_1-0-10_knife_10_n03041632_21477.JPEG
cornet-s,1,9,NaN,knife,knife,1-0-10,0009_eid_dnn_1-0-10_knife_10_n03041632_14293.JPEG
cornet-s,1,10,NaN,knife,knife,1-0-10,0010_eid_dnn_1-0-10_knife_10_n03041632_25257.JPEG
cornet-s,1,11,NaN,keyboard,keyboard,1-0-10,0011_eid_dnn_1-0-10_keyboard_10_n04505470_1076.JPEG
cornet-s,1,12,NaN,keyboard,keyboard,1-0-10,0012_eid_dnn_1-0-10_keyboard_10_n03085013_2455.JPEG
cornet-s,1,13,NaN,keyboard,keyboard,1-0-10,0013_eid_dnn_1-0-10_keyboard_10_n03085013_25568.JPEG
cornet-s,1,14,NaN,keyboard,keyboard,1-0-10,0014_eid_dnn_1-0-10_keyboard_10_n04505470_4368.JPEG
cornet-s,1,15,NaN,keyboard,keyboard,1-0-10,0015_eid_dnn_1-0-10_keyboard_10_n03085013_3318.JPEG
cornet-s,1,16,NaN,keyboard,keyboard,1-0-10,0016_eid_dnn_1-0-10_keyboard_10_n04505470_2141.JPEG
cornet-s,1,17,NaN,keyboard,keyboard,1-0-10,0017_eid_dnn_1-0-10_keyboard_10_n04505470_10859.JPEG
cornet-s,1,18,NaN,keyboard,keyboard,1-0-10,0018_eid_dnn_1-0-10_keyboard_10_n03085013_23549.JPEG
cornet-s,1,19,NaN,keyboard,keyboard,1-0-10,0019_eid_dnn_1-0-10_keyboard_10_n04505470_1691.JPEG
cornet-s,1,20,NaN,keyboard,keyboard,1-0-10,0020_eid_dnn_1-0-10_keyboard_10_n03085013_18843.JPEG
cornet-s,1,21,NaN,elephant,elephant,1-0-10,0021_eid_dnn_1-0-10_elephant_10_n02504458_2200.JPEG
cornet-s,1,22,NaN,elephant,elephant,1-0-10,0022_eid_dnn_1-0-10_elephant_10_n02504013_6933.JPEG
cornet-s,1,23,NaN,elephant,elephant,1-0-10,0023_eid_dnn_1-0-10_elephant_10_n02504458_6930.JPEG
cornet-s,1,24,NaN,elephant,elephant,1-0-10,0024_eid_dnn_1-0-10_elephant_10_n02504458_7564.JPEG
cornet-s,1,25,NaN,elephant,elephant,1-0-10,0025_eid_dnn_1-0-10_elephant_10_n02504013_5887.JPEG
cornet-s,1,26,NaN,elephant,elephant,1-0-10,0026_eid_dnn_1-0-10_elephant_10_n02504013_17878.JPEG
cornet-s,1,27,NaN,elephant,elephant,1-0-10,0027_eid_dnn_1-0-10_elephant_10_n02504013_1784.JPEG
cornet-s,1,28,NaN,elephant,elephant,1-0-10,0028_eid_dnn_1-0-10_elephant_10_n02504458_6314.JPEG
cornet-s,1,29,NaN,elephant,elephant,1-0-10,0029_eid_dnn_1-0-10_elephant_10_n02504458_494.JPEG
cornet-s,1,30,NaN,elephant,elephant,1-0-10,0030_eid_dnn_1-0-10_elephant_10_n02504013_645.JPEG
cornet-s,1,31,NaN,bicycle,bicycle,1-0-10,0031_eid_dnn_1-0-10_bicycle_10_n03792782_49889.JPEG
cornet-s,1,32,NaN,bicycle,bicycle,1-0-10,0032_eid_dnn_1-0-10_bicycle_10_n02835271_7099.JPEG
cornet-s,1,33,NaN,bicycle,bicycle,1-0-10,0033_eid_dnn_1-0-10_bicycle_10_n03792782_17090.JPEG
cornet-s,1,34,NaN,bicycle,bicycle,1-0-10,0034_eid_dnn_1-0-10_bicycle_10_n02835271_307.JPEG
cornet-s,1,35,NaN,bicycle,bicycle,1-0-10,0035_eid_dnn_1-0-10_bicycle_10_n02835271_6723.JPEG
cornet-s,1,36,NaN,bicycle,bicycle,1-0-10,0036_eid_dnn_1-0-10_bicycle_10_n02835271_15028.JPEG
cornet-s,1,37,NaN,bicycle,bicycle,1-0-10,0037_eid_dnn_1-0-10_bicycle_10_n03792782_6083.JPEG
cornet-s,1,38,NaN,bicycle,bicycle,1-0-10,0038_eid_dnn_1-0-10_bicycle_10_n03792782_40754.JPEG
cornet-s,1,39,NaN,bicycle,bicycle,1-0-10,0039_eid_dnn_1-0-10_bicycle_10_n02835271_7771.JPEG
cornet-s,1,40,NaN,bicycle,bicycle,1-0-10,0040_eid_dnn_1-0-10_bicycle_10_n03792782_72443.JPEG
cornet-s,1,41,NaN,airplane,airplane,1-0-10,0041_eid_dnn_1-0-10_airplane_10_n02690373_563.JPEG
cornet-s,1,42,NaN,airplane,airplane,1-0-10,0042_eid_dnn_1-0-10_airplane_10_n02690373_5462.JPEG
cornet-s,1,43,NaN,airplane,airplane,1-0-10,0043_eid_dnn_1-0-10_airplane_10_n02690373_6854.JPEG
cornet-s,1,44,NaN,airplane,airplane,1-0-10,0044_eid_dnn_1-0-10_airplane_10_n02690373_2796.JPEG
cornet-s,1,45,NaN,airplane,airplane,1-0-10,0045_eid_dnn_1-0-10_airplane_10_n02690373_166.JPEG
cornet-s,1,46,NaN,airplane,airplane,1-0-10,0046_eid_dnn_1-0-10_airplane_10_n02690373_5487.JPEG
cornet-s,1,47,NaN,airplane,airplane,1-0-10,0047_eid_dnn_1-0-10_airplane_10_n02690373_19152.JPEG
cornet-s,1,48,NaN,airplane,airplane,1-0-10,0048_eid_dnn_1-0-10_airplane_10_n02690373_5778.JPEG
cornet-s,1,49,NaN,airplane,airplane,1-0-10,0049_eid_dnn_1-0-10_airplane_10_n02690373_4695.JPEG
cornet-s,1,50,NaN,airplane,airplane,1-0-10,0050_eid_dnn_1-0-10_airplane_10_n02690373_1161.JPEG
cornet-s,1,51,NaN,clock,clock,1-0-10,0051_eid_dnn_1-0-10_clock_10_n03196217_1590.JPEG
cornet-s,1,52,NaN,clock,clock,1-0-10,0052_eid_dnn_1-0-10_clock_10_n03196217_427.JPEG
cornet-s,1,53,NaN,car,clock,1-0-10,0053_eid_dnn_1-0-10_clock_10_n02708093_1515.JPEG
cornet-s,1,54,NaN,clock,clock,1-0-10,0054_eid_dnn_1-0-10_clock_10_n04548280_4069.JPEG
cornet-s,1,55,NaN,clock,clock,1-0-10,0055_eid_dnn_1-0-10_clock_10_n04548280_3454.JPEG
cornet-s,1,56,NaN,clock,clock,1-0-10,0056_eid_dnn_1-0-10_clock_10_n02708093_7929.JPEG
cornet-s,1,57,NaN,clock,clock,1-0-10,0057_eid_dnn_1-0-10_clock_10_n02708093_5551.JPEG
cornet-s,1,58,NaN,clock,clock,1-0-10,0058_eid_dnn_1-0-10_clock_10_n04548280_23780.JPEG
cornet-s,1,59,NaN,clock,clock,1-0-10,0059_eid_dnn_1-0-10_clock_10_n04548280_119.JPEG
cornet-s,1,60,NaN,clock,clock,1-0-10,0060_eid_dnn_1-0-10_clock_10_n03196217_6526.JPEG
cornet-s,1,61,NaN,oven,oven,1-0-10,0061_eid_dnn_1-0-10_oven_10_n04111531_12103.JPEG
cornet-s,1,62,NaN,oven,oven,1-0-10,0062_eid_dnn_1-0-10_oven_10_n04111531_7130.JPEG
cornet-s,1,63,NaN,oven,oven,1-0-10,0063_eid_dnn_1-0-10_oven_10_n04111531_10622.JPEG
cornet-s,1,64,NaN,oven,oven,1-0-10,0064_eid_dnn_1-0-10_oven_10_n04111531_20359.JPEG
cornet-s,1,65,NaN,oven,oven,1-0-10,0065_eid_dnn_1-0-10_oven_10_n04111531_92.JPEG
cornet-s,1,66,NaN,oven,oven,1-0-10,0066_eid_dnn_1-0-10_oven_10_n04111531_3977.JPEG
cornet-s,1,67,NaN,oven,oven,1-0-10,0067_eid_dnn_1-0-10_oven_10_n04111531_681.JPEG
cornet-s,1,68,NaN,chair,oven,1-0-10,0068_eid_dnn_1-0-10_oven_10_n04111531_2592.JPEG
cornet-s,1,69,NaN,oven,oven,1-0-10,0069_eid_dnn_1-0-10_oven_10_n04111531_20369.JPEG
cornet-s,1,70,NaN,oven,oven,1-0-10,0070_eid_dnn_1-0-10_oven_10_n04111531_2797.JPEG
cornet-s,1,71,NaN,chair,chair,1-0-10,0071_eid_dnn_1-0-10_chair_10_n04099969_8130.JPEG
cornet-s,1,72,NaN,chair,chair,1-0-10,0072_eid_dnn_1-0-10_chair_10_n02791124_15339.JPEG
cornet-s,1,73,NaN,chair,chair,1-0-10,0073_eid_dnn_1-0-10_chair_10_n04099969_53716.JPEG
cornet-s,1,74,NaN,clock,chair,1-0-10,0074_eid_dnn_1-0-10_chair_10_n04429376_58604.JPEG
cornet-s,1,75,NaN,chair,chair,1-0-10,0075_eid_dnn_1-0-10_chair_10_n04099969_2574.JPEG
cornet-s,1,76,NaN,chair,chair,1-0-10,0076_eid_dnn_1-0-10_chair_10_n03376595_4354.JPEG
cornet-s,1,77,NaN,chair,chair,1-0-10,0077_eid_dnn_1-0-10_chair_10_n02791124_2972.JPEG
cornet-s,1,78,NaN,chair,chair,1-0-10,0078_eid_dnn_1-0-10_chair_10_n04099969_5456.JPEG
cornet-s,1,79,NaN,chair,chair,1-0-10,0079_eid_dnn_1-0-10_chair_10_n04099969_5531.JPEG
cornet-s,1,80,NaN,chair,chair,1-0-10,0080_eid_dnn_1-0-10_chair_10_n03376595_2848.JPEG
cornet-s,1,81,NaN,bear,bear,1-0-10,0081_eid_dnn_1-0-10_bear_10_n02134418_12717.JPEG
cornet-s,1,82,NaN,bear,bear,1-0-10,0082_eid_dnn_1-0-10_bear_10_n02133161_3887.JPEG
cornet-s,1,83,NaN,bear,bear,1-0-10,0083_eid_dnn_1-0-10_bear_10_n02133161_1254.JPEG
cornet-s,1,84,NaN,bear,bear,1-0-10,0084_eid_dnn_1-0-10_bear_10_n02134084_24208.JPEG
cornet-s,1,85,NaN,bear,bear,1-0-10,0085_eid_dnn_1-0-10_bear_10_n02133161_3574.JPEG
cornet-s,1,86,NaN,bear,bear,1-0-10,0086_eid_dnn_1-0-10_bear_10_n02133161_2749.JPEG
cornet-s,1,87,NaN,bear,bear,1-0-10,0087_eid_dnn_1-0-10_bear_10_n02133161_14154.JPEG
cornet-s,1,88,NaN,bear,bear,1-0-10,0088_eid_dnn_1-0-10_bear_10_n02134084_2376.JPEG
cornet-s,1,89,NaN,bear,bear,1-0-10,0089_eid_dnn_1-0-10_bear_10_n02134084_8842.JPEG
cornet-s,1,90,NaN,bear,bear,1-0-10,0090_eid_dnn_1-0-10_bear_10_n02134418_4754.JPEG
cornet-s,1,91,NaN,boat,boat,1-0-10,0091_eid_dnn_1-0-10_boat_10_n03662601_7210.JPEG
cornet-s,1,92,NaN,boat,boat,1-0-10,0092_eid_dnn_1-0-10_boat_10_n04273569_1495.JPEG
cornet-s,1,93,NaN,boat,boat,1-0-10,0093_eid_dnn_1-0-10_boat_10_n02951358_9853.JPEG
cornet-s,1,94,NaN,boat,boat,1-0-10,0094_eid_dnn_1-0-10_boat_10_n04273569_1703.JPEG
cornet-s,1,95,NaN,boat,boat,1-0-10,0095_eid_dnn_1-0-10_boat_10_n02951358_14831.JPEG
cornet-s,1,96,NaN,boat,boat,1-0-10,0096_eid_dnn_1-0-10_boat_10_n03344393_3103.JPEG
cornet-s,1,97,NaN,boat,boat,1-0-10,0097_eid_dnn_1-0-10_boat_10_n04612504_21974.JPEG
cornet-s,1,98,NaN,boat,boat,1-0-10,0098_eid_dnn_1-0-10_boat_10_n04612504_9051.JPEG
cornet-s,1,99,NaN,boat,boat,1-0-10,0099_eid_dnn_1-0-10_boat_10_n02951358_15634.JPEG
cornet-s,1,100,NaN,boat,boat,1-0-10,0100_eid_dnn_1-0-10_boat_10_n04612504_18442.JPEG
cornet-s,1,101,NaN,cat,cat,1-0-10,0101_eid_dnn_1-0-10_cat_10_n02123159_9949.JPEG
cornet-s,1,102,NaN,cat,cat,1-0-10,0102_eid_dnn_1-0-10_cat_10_n02125311_41806.JPEG
cornet-s,1,103,NaN,cat,cat,1-0-10,0103_eid_dnn_1-0-10_cat_10_n02123597_3037.JPEG
cornet-s,1,104,NaN,cat,cat,1-0-10,0104_eid_dnn_1-0-10_cat_10_n02125311_9625.JPEG
cornet-s,1,105,NaN,cat,cat,1-0-10,0105_eid_dnn_1-0-10_cat_10_n02123159_1355.JPEG
cornet-s,1,106,NaN,cat,cat,1-0-10,0106_eid_dnn_1-0-10_cat_10_n02123597_772.JPEG
cornet-s,1,107,NaN,cat,cat,1-0-10,0107_eid_dnn_1-0-10_cat_10_n02123597_7047.JPEG
cornet-s,1,108,NaN,cat,cat,1-0-10,0108_eid_dnn_1-0-10_cat_10_n02123045_12826.JPEG
cornet-s,1,109,NaN,cat,cat,1-0-10,0109_eid_dnn_1-0-10_cat_10_n02123597_5697.JPEG
cornet-s,1,110,NaN,cat,cat,1-0-10,0110_eid_dnn_1-0-10_cat_10_n02124075_6210.JPEG
cornet-s,1,111,NaN,keyboard,bottle,1-0-10,0111_eid_dnn_1-0-10_bottle_10_n04560804_2436.JPEG
cornet-s,1,112,NaN,bottle,bottle,1-0-10,0112_eid_dnn_1-0-10_bottle_10_n03983396_13209.JPEG
cornet-s,1,113,NaN,bottle,bottle,1-0-10,0113_eid_dnn_1-0-10_bottle_10_n04579145_254.JPEG
cornet-s,1,114,NaN,bottle,bottle,1-0-10,0114_eid_dnn_1-0-10_bottle_10_n04560804_15452.JPEG
cornet-s,1,115,NaN,bottle,bottle,1-0-10,0115_eid_dnn_1-0-10_bottle_10_n04557648_94.JPEG
cornet-s,1,116,NaN,bottle,bottle,1-0-10,0116_eid_dnn_1-0-10_bottle_10_n03983396_10340.JPEG
cornet-s,1,117,NaN,bottle,bottle,1-0-10,0117_eid_dnn_1-0-10_bottle_10_n04591713_2448.JPEG
cornet-s,1,118,NaN,bottle,bottle,1-0-10,0118_eid_dnn_1-0-10_bottle_10_n03983396_6980.JPEG
cornet-s,1,119,NaN,bottle,bottle,1-0-10,0119_eid_dnn_1-0-10_bottle_10_n04557648_3405.JPEG
cornet-s,1,120,NaN,bottle,bottle,1-0-10,0120_eid_dnn_1-0-10_bottle_10_n04560804_9504.JPEG
cornet-s,1,121,NaN,truck,truck,1-0-10,0121_eid_dnn_1-0-10_truck_10_n03796401_23014.JPEG
cornet-s,1,122,NaN,truck,truck,1-0-10,0122_eid_dnn_1-0-10_truck_10_n04467665_9833.JPEG
cornet-s,1,123,NaN,truck,truck,1-0-10,0123_eid_dnn_1-0-10_truck_10_n04467665_55408.JPEG
cornet-s,1,124,NaN,truck,truck,1-0-10,0124_eid_dnn_1-0-10_truck_10_n04467665_90715.JPEG
cornet-s,1,125,NaN,truck,truck,1-0-10,0125_eid_dnn_1-0-10_truck_10_n04467665_20518.JPEG
cornet-s,1,126,NaN,truck,truck,1-0-10,0126_eid_dnn_1-0-10_truck_10_n03796401_12117.JPEG
cornet-s,1,127,NaN,truck,truck,1-0-10,0127_eid_dnn_1-0-10_truck_10_n04467665_2528.JPEG
cornet-s,1,128,NaN,bicycle,truck,1-0-10,0128_eid_dnn_1-0-10_truck_10_n04467665_23680.JPEG
cornet-s,1,129,NaN,truck,truck,1-0-10,0129_eid_dnn_1-0-10_truck_10_n04467665_67078.JPEG
cornet-s,1,130,NaN,truck,truck,1-0-10,0130_eid_dnn_1-0-10_truck_10_n03417042_11946.JPEG
cornet-s,1,131,NaN,car,car,1-0-10,0131_eid_dnn_1-0-10_car_10_n03100240_19460.JPEG
cornet-s,1,132,NaN,car,car,1-0-10,0132_eid_dnn_1-0-10_car_10_n04285008_613.JPEG
cornet-s,1,133,NaN,car,car,1-0-10,0133_eid_dnn_1-0-10_car_10_n03100240_5719.JPEG
cornet-s,1,134,NaN,car,car,1-0-10,0134_eid_dnn_1-0-10_car_10_n02814533_7368.JPEG
cornet-s,1,135,NaN,car,car,1-0-10,0135_eid_dnn_1-0-10_car_10_n02814533_92353.JPEG
cornet-s,1,136,NaN,bicycle,car,1-0-10,0136_eid_dnn_1-0-10_car_10_n02814533_4833.JPEG
cornet-s,1,137,NaN,car,car,1-0-10,0137_eid_dnn_1-0-10_car_10_n02814533_70322.JPEG
cornet-s,1,138,NaN,car,car,1-0-10,0138_eid_dnn_1-0-10_car_10_n04285008_5251.JPEG
cornet-s,1,139,NaN,car,car,1-0-10,0139_eid_dnn_1-0-10_car_10_n02814533_1215.JPEG
cornet-s,1,140,NaN,car,car,1-0-10,0140_eid_dnn_1-0-10_car_10_n02814533_20022.JPEG
cornet-s,1,141,NaN,bird,bird,1-0-10,0141_eid_dnn_1-0-10_bird_10_n01797886_14793.JPEG
cornet-s,1,142,NaN,bird,bird,1-0-10,0142_eid_dnn_1-0-10_bird_10_n01534433_2067.JPEG
cornet-s,1,143,NaN,bird,bird,1-0-10,0143_eid_dnn_1-0-10_bird_10_n01558993_2799.JPEG
cornet-s,1,144,NaN,dog,bird,1-0-10,0144_eid_dnn_1-0-10_bird_10_n01560419_510.JPEG
cornet-s,1,145,NaN,bird,bird,1-0-10,0145_eid_dnn_1-0-10_bird_10_n01592084_9313.JPEG
cornet-s,1,146,NaN,dog,bird,1-0-10,0146_eid_dnn_1-0-10_bird_10_n02017213_7185.JPEG
cornet-s,1,147,NaN,bird,bird,1-0-10,0147_eid_dnn_1-0-10_bird_10_n01537544_1096.JPEG
cornet-s,1,148,NaN,bird,bird,1-0-10,0148_eid_dnn_1-0-10_bird_10_n01824575_5735.JPEG
cornet-s,1,149,NaN,bird,bird,1-0-10,0149_eid_dnn_1-0-10_bird_10_n01820546_11290.JPEG
cornet-s,1,150,NaN,bird,bird,1-0-10,0150_eid_dnn_1-0-10_bird_10_n01537544_9023.JPEG
cornet-s,1,151,NaN,dog,dog,1-0-10,0151_eid_dnn_1-0-10_dog_10_n02107683_2033.JPEG
cornet-s,1,152,NaN,cat,dog,1-0-10,0152_eid_dnn_1-0-10_dog_10_n02110806_824.JPEG
cornet-s,1,153,NaN,dog,dog,1-0-10,0153_eid_dnn_1-0-10_dog_10_n02097474_13807.JPEG
cornet-s,1,154,NaN,dog,dog,1-0-10,0154_eid_dnn_1-0-10_dog_10_n02093754_4864.JPEG
cornet-s,1,155,NaN,dog,dog,1-0-10,0155_eid_dnn_1-0-10_dog_10_n02095314_1772.JPEG
cornet-s,1,156,NaN,dog,dog,1-0-10,0156_eid_dnn_1-0-10_dog_10_n02088238_388.JPEG
cornet-s,1,157,NaN,dog,dog,1-0-10,0157_eid_dnn_1-0-10_dog_10_n02100236_922.JPEG
cornet-s,1,158,NaN,cat,dog,1-0-10,0158_eid_dnn_1-0-10_dog_10_n02091032_5644.JPEG
cornet-s,1,159,NaN,dog,dog,1-0-10,0159_eid_dnn_1-0-10_dog_10_n02102040_208.JPEG
cornet-s,1,160,NaN,bird,dog,1-0-10,0160_eid_dnn_1-0-10_dog_10_n02097658_10507.JPEG
cornet-s,1,161,NaN,knife,knife,2-0-10,0161_eid_dnn_2-0-10_knife_10_n03041632_50648.JPEG
cornet-s,1,162,NaN,knife,knife,2-0-10,0162_eid_dnn_2-0-10_knife_10_n03041632_96714.JPEG
cornet-s,1,163,NaN,knife,knife,2-0-10,0163_eid_dnn_2-0-10_knife_10_n03041632_8151.JPEG
cornet-s,1,164,NaN,knife,knife,2-0-10,0164_eid_dnn_2-0-10_knife_10_n03041632_13645.JPEG
cornet-s,1,165,NaN,knife,knife,2-0-10,0165_eid_dnn_2-0-10_knife_10_n03041632_20576.JPEG
cornet-s,1,166,NaN,knife,knife,2-0-10,0166_eid_dnn_2-0-10_knife_10_n03041632_11969.JPEG
cornet-s,1,167,NaN,knife,knife,2-0-10,0167_eid_dnn_2-0-10_knife_10_n03041632_42156.JPEG
cornet-s,1,168,NaN,knife,knife,2-0-10,0168_eid_dnn_2-0-10_knife_10_n03041632_4714.JPEG
cornet-s,1,169,NaN,knife,knife,2-0-10,0169_eid_dnn_2-0-10_knife_10_n03041632_49513.JPEG
cornet-s,1,170,NaN,knife,knife,2-0-10,0170_eid_dnn_2-0-10_knife_10_n03041632_3781.JPEG
cornet-s,1,171,NaN,keyboard,keyboard,2-0-10,0171_eid_dnn_2-0-10_keyboard_10_n04505470_8828.JPEG
cornet-s,1,172,NaN,bottle,keyboard,2-0-10,0172_eid_dnn_2-0-10_keyboard_10_n04505470_4742.JPEG
cornet-s,1,173,NaN,keyboard,keyboard,2-0-10,0173_eid_dnn_2-0-10_keyboard_10_n04505470_5122.JPEG
cornet-s,1,174,NaN,keyboard,keyboard,2-0-10,0174_eid_dnn_2-0-10_keyboard_10_n03085013_3264.JPEG
cornet-s,1,175,NaN,keyboard,keyboard,2-0-10,0175_eid_dnn_2-0-10_keyboard_10_n03085013_19020.JPEG
cornet-s,1,176,NaN,keyboard,keyboard,2-0-10,0176_eid_dnn_2-0-10_keyboard_10_n04505470_1648.JPEG
cornet-s,1,177,NaN,keyboard,keyboard,2-0-10,0177_eid_dnn_2-0-10_keyboard_10_n03085013_23350.JPEG
cornet-s,1,178,NaN,keyboard,keyboard,2-0-10,0178_eid_dnn_2-0-10_keyboard_10_n03085013_11359.JPEG
cornet-s,1,179,NaN,keyboard,keyboard,2-0-10,0179_eid_dnn_2-0-10_keyboard_10_n04505470_850.JPEG
cornet-s,1,180,NaN,chair,keyboard,2-0-10,0180_eid_dnn_2-0-10_keyboard_10_n03085013_3980.JPEG
cornet-s,1,181,NaN,elephant,elephant,2-0-10,0181_eid_dnn_2-0-10_elephant_10_n02504458_4161.JPEG
cornet-s,1,182,NaN,elephant,elephant,2-0-10,0182_eid_dnn_2-0-10_elephant_10_n02504013_3739.JPEG
cornet-s,1,183,NaN,elephant,elephant,2-0-10,0183_eid_dnn_2-0-10_elephant_10_n02504458_6579.JPEG
cornet-s,1,184,NaN,elephant,elephant,2-0-10,0184_eid_dnn_2-0-10_elephant_10_n02504013_2012.JPEG
cornet-s,1,185,NaN,elephant,elephant,2-0-10,0185_eid_dnn_2-0-10_elephant_10_n02504458_5875.JPEG
cornet-s,1,186,NaN,elephant,elephant,2-0-10,0186_eid_dnn_2-0-10_elephant_10_n02504013_2169.JPEG
cornet-s,1,187,NaN,elephant,elephant,2-0-10,0187_eid_dnn_2-0-10_elephant_10_n02504013_1577.JPEG
cornet-s,1,188,NaN,elephant,elephant,2-0-10,0188_eid_dnn_2-0-10_elephant_10_n02504458_3068.JPEG
cornet-s,1,189,NaN,elephant,elephant,2-0-10,0189_eid_dnn_2-0-10_elephant_10_n02504458_8296.JPEG
cornet-s,1,190,NaN,bear,elephant,2-0-10,0190_eid_dnn_2-0-10_elephant_10_n02504458_5376.JPEG
cornet-s,1,191,NaN,bicycle,bicycle,2-0-10,0191_eid_dnn_2-0-10_bicycle_10_n02835271_3250.JPEG
cornet-s,1,192,NaN,bicycle,bicycle,2-0-10,0192_eid_dnn_2-0-10_bicycle_10_n02835271_916.JPEG
cornet-s,1,193,NaN,bicycle,bicycle,2-0-10,0193_eid_dnn_2-0-10_bicycle_10_n02835271_270.JPEG
cornet-s,1,194,NaN,bicycle,bicycle,2-0-10,0194_eid_dnn_2-0-10_bicycle_10_n03792782_1954.JPEG
cornet-s,1,195,NaN,bicycle,bicycle,2-0-10,0195_eid_dnn_2-0-10_bicycle_10_n02835271_3338.JPEG
cornet-s,1,196,NaN,bicycle,bicycle,2-0-10,0196_eid_dnn_2-0-10_bicycle_10_n03792782_35912.JPEG
cornet-s,1,197,NaN,bicycle,bicycle,2-0-10,0197_eid_dnn_2-0-10_bicycle_10_n03792782_37794.JPEG
cornet-s,1,198,NaN,bicycle,bicycle,2-0-10,0198_eid_dnn_2-0-10_bicycle_10_n03792782_21125.JPEG
cornet-s,1,199,NaN,bicycle,bicycle,2-0-10,0199_eid_dnn_2-0-10_bicycle_10_n03792782_4895.JPEG
cornet-s,1,200,NaN,bicycle,bicycle,2-0-10,0200_eid_dnn_2-0-10_bicycle_10_n02835271_17914.JPEG
cornet-s,1,201,NaN,airplane,airplane,2-0-10,0201_eid_dnn_2-0-10_airplane_10_n02690373_4108.JPEG
cornet-s,1,202,NaN,airplane,airplane,2-0-10,0202_eid_dnn_2-0-10_airplane_10_n02690373_10374.JPEG
cornet-s,1,203,NaN,airplane,airplane,2-0-10,0203_eid_dnn_2-0-10_airplane_10_n02690373_1975.JPEG
cornet-s,1,204,NaN,airplane,airplane,2-0-10,0204_eid_dnn_2-0-10_airplane_10_n02690373_8876.JPEG
cornet-s,1,205,NaN,airplane,airplane,2-0-10,0205_eid_dnn_2-0-10_airplane_10_n02690373_7229.JPEG
cornet-s,1,206,NaN,airplane,airplane,2-0-10,0206_eid_dnn_2-0-10_airplane_10_n02690373_13585.JPEG
cornet-s,1,207,NaN,airplane,airplane,2-0-10,0207_eid_dnn_2-0-10_airplane_10_n02690373_5204.JPEG
cornet-s,1,208,NaN,airplane,airplane,2-0-10,0208_eid_dnn_2-0-10_airplane_10_n02690373_5712.JPEG
cornet-s,1,209,NaN,airplane,airplane,2-0-10,0209_eid_dnn_2-0-10_airplane_10_n02690373_9760.JPEG
cornet-s,1,210,NaN,airplane,airplane,2-0-10,0210_eid_dnn_2-0-10_airplane_10_n02690373_4064.JPEG
cornet-s,1,211,NaN,clock,clock,2-0-10,0211_eid_dnn_2-0-10_clock_10_n04548280_3133.JPEG
cornet-s,1,212,NaN,clock,clock,2-0-10,0212_eid_dnn_2-0-10_clock_10_n04548280_1166.JPEG
cornet-s,1,213,NaN,clock,clock,2-0-10,0213_eid_dnn_2-0-10_clock_10_n03196217_6193.JPEG
cornet-s,1,214,NaN,clock,clock,2-0-10,0214_eid_dnn_2-0-10_clock_10_n04548280_2506.JPEG
cornet-s,1,215,NaN,clock,clock,2-0-10,0215_eid_dnn_2-0-10_clock_10_n04548280_2788.JPEG
cornet-s,1,216,NaN,clock,clock,2-0-10,0216_eid_dnn_2-0-10_clock_10_n04548280_1809.JPEG
cornet-s,1,217,NaN,clock,clock,2-0-10,0217_eid_dnn_2-0-10_clock_10_n04548280_16378.JPEG
cornet-s,1,218,NaN,clock,clock,2-0-10,0218_eid_dnn_2-0-10_clock_10_n04548280_5224.JPEG
cornet-s,1,219,NaN,bottle,clock,2-0-10,0219_eid_dnn_2-0-10_clock_10_n03196217_1746.JPEG
cornet-s,1,220,NaN,chair,clock,2-0-10,0220_eid_dnn_2-0-10_clock_10_n03196217_13062.JPEG
cornet-s,1,221,NaN,keyboard,oven,2-0-10,0221_eid_dnn_2-0-10_oven_10_n04111531_2086.JPEG
cornet-s,1,222,NaN,oven,oven,2-0-10,0222_eid_dnn_2-0-10_oven_10_n04111531_3265.JPEG
cornet-s,1,223,NaN,oven,oven,2-0-10,0223_eid_dnn_2-0-10_oven_10_n04111531_8046.JPEG
cornet-s,1,224,NaN,oven,oven,2-0-10,0224_eid_dnn_2-0-10_oven_10_n04111531_11026.JPEG
cornet-s,1,225,NaN,oven,oven,2-0-10,0225_eid_dnn_2-0-10_oven_10_n04111531_5950.JPEG
cornet-s,1,226,NaN,keyboard,oven,2-0-10,0226_eid_dnn_2-0-10_oven_10_n04111531_7097.JPEG
cornet-s,1,227,NaN,oven,oven,2-0-10,0227_eid_dnn_2-0-10_oven_10_n04111531_11230.JPEG
cornet-s,1,228,NaN,oven,oven,2-0-10,0228_eid_dnn_2-0-10_oven_10_n04111531_14178.JPEG
cornet-s,1,229,NaN,oven,oven,2-0-10,0229_eid_dnn_2-0-10_oven_10_n04111531_9498.JPEG
cornet-s,1,230,NaN,oven,oven,2-0-10,0230_eid_dnn_2-0-10_oven_10_n04111531_8181.JPEG
cornet-s,1,231,NaN,chair,chair,2-0-10,0231_eid_dnn_2-0-10_chair_10_n02791124_1049.JPEG
cornet-s,1,232,NaN,chair,chair,2-0-10,0232_eid_dnn_2-0-10_chair_10_n04429376_9691.JPEG
cornet-s,1,233,NaN,chair,chair,2-0-10,0233_eid_dnn_2-0-10_chair_10_n04429376_7741.JPEG
cornet-s,1,234,NaN,chair,chair,2-0-10,0234_eid_dnn_2-0-10_chair_10_n03376595_3449.JPEG
cornet-s,1,235,NaN,chair,chair,2-0-10,0235_eid_dnn_2-0-10_chair_10_n04429376_14072.JPEG
cornet-s,1,236,NaN,chair,chair,2-0-10,0236_eid_dnn_2-0-10_chair_10_n02791124_1456.JPEG
cornet-s,1,237,NaN,chair,chair,2-0-10,0237_eid_dnn_2-0-10_chair_10_n02791124_4109.JPEG
cornet-s,1,238,NaN,chair,chair,2-0-10,0238_eid_dnn_2-0-10_chair_10_n03376595_8806.JPEG
cornet-s,1,239,NaN,chair,chair,2-0-10,0239_eid_dnn_2-0-10_chair_10_n04099969_32019.JPEG
cornet-s,1,240,NaN,chair,chair,2-0-10,0240_eid_dnn_2-0-10_chair_10_n03376595_10689.JPEG
cornet-s,1,241,NaN,bear,bear,2-0-10,0241_eid_dnn_2-0-10_bear_10_n02134084_712.JPEG
cornet-s,1,242,NaN,bear,bear,2-0-10,0242_eid_dnn_2-0-10_bear_10_n02134084_4386.JPEG
cornet-s,1,243,NaN,dog,bear,2-0-10,0243_eid_dnn_2-0-10_bear_10_n02134084_41483.JPEG
cornet-s,1,244,NaN,bear,bear,2-0-10,0244_eid_dnn_2-0-10_bear_10_n02132136_7602.JPEG
cornet-s,1,245,NaN,bear,bear,2-0-10,0245_eid_dnn_2-0-10_bear_10_n02134084_1455.JPEG
cornet-s,1,246,NaN,bear,bear,2-0-10,0246_eid_dnn_2-0-10_bear_10_n02133161_11371.JPEG
cornet-s,1,247,NaN,bear,bear,2-0-10,0247_eid_dnn_2-0-10_bear_10_n02134084_23277.JPEG
cornet-s,1,248,NaN,bear,bear,2-0-10,0248_eid_dnn_2-0-10_bear_10_n02132136_11015.JPEG
cornet-s,1,249,NaN,bear,bear,2-0-10,0249_eid_dnn_2-0-10_bear_10_n02132136_17498.JPEG
cornet-s,1,250,NaN,bicycle,bear,2-0-10,0250_eid_dnn_2-0-10_bear_10_n02134418_6083.JPEG
cornet-s,1,251,NaN,boat,boat,2-0-10,0251_eid_dnn_2-0-10_boat_10_n03344393_482.JPEG
cornet-s,1,252,NaN,boat,boat,2-0-10,0252_eid_dnn_2-0-10_boat_10_n04273569_17458.JPEG
cornet-s,1,253,NaN,boat,boat,2-0-10,0253_eid_dnn_2-0-10_boat_10_n04612504_40487.JPEG
cornet-s,1,254,NaN,boat,boat,2-0-10,0254_eid_dnn_2-0-10_boat_10_n03344393_1552.JPEG
cornet-s,1,255,NaN,boat,boat,2-0-10,0255_eid_dnn_2-0-10_boat_10_n04612504_15103.JPEG
cornet-s,1,256,NaN,boat,boat,2-0-10,0256_eid_dnn_2-0-10_boat_10_n02951358_13865.JPEG
cornet-s,1,257,NaN,boat,boat,2-0-10,0257_eid_dnn_2-0-10_boat_10_n02951358_15174.JPEG
cornet-s,1,258,NaN,boat,boat,2-0-10,0258_eid_dnn_2-0-10_boat_10_n03344393_7459.JPEG
cornet-s,1,259,NaN,boat,boat,2-0-10,0259_eid_dnn_2-0-10_boat_10_n03662601_19840.JPEG
cornet-s,1,260,NaN,boat,boat,2-0-10,0260_eid_dnn_2-0-10_boat_10_n04273569_15259.JPEG
cornet-s,1,261,NaN,cat,cat,2-0-10,0261_eid_dnn_2-0-10_cat_10_n02123045_12332.JPEG
cornet-s,1,262,NaN,cat,cat,2-0-10,0262_eid_dnn_2-0-10_cat_10_n02123159_1879.JPEG
cornet-s,1,263,NaN,cat,cat,2-0-10,0263_eid_dnn_2-0-10_cat_10_n02123045_10847.JPEG
cornet-s,1,264,NaN,dog,cat,2-0-10,0264_eid_dnn_2-0-10_cat_10_n02125311_59430.JPEG
cornet-s,1,265,NaN,cat,cat,2-0-10,0265_eid_dnn_2-0-10_cat_10_n02123159_1666.JPEG
cornet-s,1,266,NaN,cat,cat,2-0-10,0266_eid_dnn_2-0-10_cat_10_n02123597_1863.JPEG
cornet-s,1,267,NaN,cat,cat,2-0-10,0267_eid_dnn_2-0-10_cat_10_n02123597_8749.JPEG
cornet-s,1,268,NaN,dog,cat,2-0-10,0268_eid_dnn_2-0-10_cat_10_n02123045_9813.JPEG
cornet-s,1,269,NaN,cat,cat,2-0-10,0269_eid_dnn_2-0-10_cat_10_n02123597_5460.JPEG
cornet-s,1,270,NaN,cat,cat,2-0-10,0270_eid_dnn_2-0-10_cat_10_n02123394_3027.JPEG
cornet-s,1,271,NaN,bottle,bottle,2-0-10,0271_eid_dnn_2-0-10_bottle_10_n04591713_6351.JPEG
cornet-s,1,272,NaN,bottle,bottle,2-0-10,0272_eid_dnn_2-0-10_bottle_10_n04560804_28441.JPEG
cornet-s,1,273,NaN,bottle,bottle,2-0-10,0273_eid_dnn_2-0-10_bottle_10_n04560804_9878.JPEG
cornet-s,1,274,NaN,bottle,bottle,2-0-10,0274_eid_dnn_2-0-10_bottle_10_n04591713_4971.JPEG
cornet-s,1,275,NaN,bottle,bottle,2-0-10,0275_eid_dnn_2-0-10_bottle_10_n04557648_3439.JPEG
cornet-s,1,276,NaN,knife,bottle,2-0-10,0276_eid_dnn_2-0-10_bottle_10_n03937543_1490.JPEG
cornet-s,1,277,NaN,bottle,bottle,2-0-10,0277_eid_dnn_2-0-10_bottle_10_n04560804_1908.JPEG
cornet-s,1,278,NaN,bottle,bottle,2-0-10,0278_eid_dnn_2-0-10_bottle_10_n03983396_4879.JPEG
cornet-s,1,279,NaN,bottle,bottle,2-0-10,0279_eid_dnn_2-0-10_bottle_10_n03937543_2874.JPEG
cornet-s,1,280,NaN,bottle,bottle,2-0-10,0280_eid_dnn_2-0-10_bottle_10_n04560804_7050.JPEG
cornet-s,1,281,NaN,truck,truck,2-0-10,0281_eid_dnn_2-0-10_truck_10_n03417042_3329.JPEG
cornet-s,1,282,NaN,truck,truck,2-0-10,0282_eid_dnn_2-0-10_truck_10_n03417042_22539.JPEG
cornet-s,1,283,NaN,truck,truck,2-0-10,0283_eid_dnn_2-0-10_truck_10_n04467665_23847.JPEG
cornet-s,1,284,NaN,truck,truck,2-0-10,0284_eid_dnn_2-0-10_truck_10_n04467665_9331.JPEG
cornet-s,1,285,NaN,truck,truck,2-0-10,0285_eid_dnn_2-0-10_truck_10_n04467665_53339.JPEG
cornet-s,1,286,NaN,truck,truck,2-0-10,0286_eid_dnn_2-0-10_truck_10_n03417042_18590.JPEG
cornet-s,1,287,NaN,truck,truck,2-0-10,0287_eid_dnn_2-0-10_truck_10_n04467665_72661.JPEG
cornet-s,1,288,NaN,truck,truck,2-0-10,0288_eid_dnn_2-0-10_truck_10_n03417042_11602.JPEG
cornet-s,1,289,NaN,truck,truck,2-0-10,0289_eid_dnn_2-0-10_truck_10_n03417042_3011.JPEG
cornet-s,1,290,NaN,bicycle,truck,2-0-10,0290_eid_dnn_2-0-10_truck_10_n03417042_8807.JPEG
cornet-s,1,291,NaN,car,car,2-0-10,0291_eid_dnn_2-0-10_car_10_n04285008_5528.JPEG
cornet-s,1,292,NaN,truck,car,2-0-10,0292_eid_dnn_2-0-10_car_10_n02814533_13900.JPEG
cornet-s,1,293,NaN,truck,car,2-0-10,0293_eid_dnn_2-0-10_car_10_n03100240_7570.JPEG
cornet-s,1,294,NaN,car,car,2-0-10,0294_eid_dnn_2-0-10_car_10_n02814533_41434.JPEG
cornet-s,1,295,NaN,car,car,2-0-10,0295_eid_dnn_2-0-10_car_10_n04285008_12659.JPEG
cornet-s,1,296,NaN,car,car,2-0-10,0296_eid_dnn_2-0-10_car_10_n02814533_77492.JPEG
cornet-s,1,297,NaN,car,car,2-0-10,0297_eid_dnn_2-0-10_car_10_n04285008_5513.JPEG
cornet-s,1,298,NaN,truck,car,2-0-10,0298_eid_dnn_2-0-10_car_10_n03100240_12777.JPEG
cornet-s,1,299,NaN,car,car,2-0-10,0299_eid_dnn_2-0-10_car_10_n03100240_976.JPEG
cornet-s,1,300,NaN,car,car,2-0-10,0300_eid_dnn_2-0-10_car_10_n03100240_6653.JPEG
cornet-s,1,301,NaN,bird,bird,2-0-10,0301_eid_dnn_2-0-10_bird_10_n02018795_2551.JPEG
cornet-s,1,302,NaN,bird,bird,2-0-10,0302_eid_dnn_2-0-10_bird_10_n01534433_2162.JPEG
cornet-s,1,303,NaN,bird,bird,2-0-10,0303_eid_dnn_2-0-10_bird_10_n01820546_894.JPEG
cornet-s,1,304,NaN,bird,bird,2-0-10,0304_eid_dnn_2-0-10_bird_10_n01622779_1725.JPEG
cornet-s,1,305,NaN,cat,bird,2-0-10,0305_eid_dnn_2-0-10_bird_10_n01824575_8874.JPEG
cornet-s,1,306,NaN,bird,bird,2-0-10,0306_eid_dnn_2-0-10_bird_10_n02033041_3150.JPEG
cornet-s,1,307,NaN,knife,bird,2-0-10,0307_eid_dnn_2-0-10_bird_10_n02033041_1031.JPEG
cornet-s,1,308,NaN,boat,bird,2-0-10,0308_eid_dnn_2-0-10_bird_10_n01860187_15459.JPEG
cornet-s,1,309,NaN,bird,bird,2-0-10,0309_eid_dnn_2-0-10_bird_10_n02056570_8449.JPEG
cornet-s,1,310,NaN,bird,bird,2-0-10,0310_eid_dnn_2-0-10_bird_10_n02027492_8027.JPEG
cornet-s,1,311,NaN,dog,dog,2-0-10,0311_eid_dnn_2-0-10_dog_10_n02090721_4540.JPEG
cornet-s,1,312,NaN,bear,dog,2-0-10,0312_eid_dnn_2-0-10_dog_10_n02088632_686.JPEG
cornet-s,1,313,NaN,dog,dog,2-0-10,0313_eid_dnn_2-0-10_dog_10_n02107312_4274.JPEG
cornet-s,1,314,NaN,dog,dog,2-0-10,0314_eid_dnn_2-0-10_dog_10_n02098286_2796.JPEG
cornet-s,1,315,NaN,dog,dog,2-0-10,0315_eid_dnn_2-0-10_dog_10_n02110958_162.JPEG
cornet-s,1,316,NaN,dog,dog,2-0-10,0316_eid_dnn_2-0-10_dog_10_n02113978_989.JPEG
cornet-s,1,317,NaN,dog,dog,2-0-10,0317_eid_dnn_2-0-10_dog_10_n02093859_3880.JPEG
cornet-s,1,318,NaN,dog,dog,2-0-10,0318_eid_dnn_2-0-10_dog_10_n02099849_2365.JPEG
cornet-s,1,319,NaN,dog,dog,2-0-10,0319_eid_dnn_2-0-10_dog_10_n02109525_71560.JPEG
cornet-s,1,320,NaN,dog,dog,2-0-10,0320_eid_dnn_2-0-10_dog_10_n02100735_4333.JPEG
cornet-s,1,321,NaN,knife,knife,4-0-10,0321_eid_dnn_4-0-10_knife_10_n03041632_16104.JPEG
cornet-s,1,322,NaN,dog,knife,4-0-10,0322_eid_dnn_4-0-10_knife_10_n03041632_19971.JPEG
cornet-s,1,323,NaN,knife,knife,4-0-10,0323_eid_dnn_4-0-10_knife_10_n03041632_32208.JPEG
cornet-s,1,324,NaN,knife,knife,4-0-10,0324_eid_dnn_4-0-10_knife_10_n03041632_8563.JPEG
cornet-s,1,325,NaN,knife,knife,4-0-10,0325_eid_dnn_4-0-10_knife_10_n03041632_26340.JPEG
cornet-s,1,326,NaN,knife,knife,4-0-10,0326_eid_dnn_4-0-10_knife_10_n03041632_24461.JPEG
cornet-s,1,327,NaN,knife,knife,4-0-10,0327_eid_dnn_4-0-10_knife_10_n03041632_45775.JPEG
cornet-s,1,328,NaN,bottle,knife,4-0-10,0328_eid_dnn_4-0-10_knife_10_n03041632_14916.JPEG
cornet-s,1,329,NaN,knife,knife,4-0-10,0329_eid_dnn_4-0-10_knife_10_n03041632_42196.JPEG
cornet-s,1,330,NaN,knife,knife,4-0-10,0330_eid_dnn_4-0-10_knife_10_n03041632_32350.JPEG
cornet-s,1,331,NaN,keyboard,keyboard,4-0-10,0331_eid_dnn_4-0-10_keyboard_10_n04505470_4354.JPEG
cornet-s,1,332,NaN,keyboard,keyboard,4-0-10,0332_eid_dnn_4-0-10_keyboard_10_n04505470_5155.JPEG
cornet-s,1,333,NaN,keyboard,keyboard,4-0-10,0333_eid_dnn_4-0-10_keyboard_10_n03085013_19471.JPEG
cornet-s,1,334,NaN,keyboard,keyboard,4-0-10,0334_eid_dnn_4-0-10_keyboard_10_n03085013_21472.JPEG
cornet-s,1,335,NaN,keyboard,keyboard,4-0-10,0335_eid_dnn_4-0-10_keyboard_10_n04505470_4789.JPEG
cornet-s,1,336,NaN,keyboard,keyboard,4-0-10,0336_eid_dnn_4-0-10_keyboard_10_n03085013_28150.JPEG
cornet-s,1,337,NaN,keyboard,keyboard,4-0-10,0337_eid_dnn_4-0-10_keyboard_10_n03085013_17455.JPEG
cornet-s,1,338,NaN,keyboard,keyboard,4-0-10,0338_eid_dnn_4-0-10_keyboard_10_n04505470_1914.JPEG
cornet-s,1,339,NaN,dog,keyboard,4-0-10,0339_eid_dnn_4-0-10_keyboard_10_n03085013_25875.JPEG
cornet-s,1,340,NaN,keyboard,keyboard,4-0-10,0340_eid_dnn_4-0-10_keyboard_10_n04505470_4965.JPEG
cornet-s,1,341,NaN,elephant,elephant,4-0-10,0341_eid_dnn_4-0-10_elephant_10_n02504458_6917.JPEG
cornet-s,1,342,NaN,elephant,elephant,4-0-10,0342_eid_dnn_4-0-10_elephant_10_n02504458_8197.JPEG
cornet-s,1,343,NaN,elephant,elephant,4-0-10,0343_eid_dnn_4-0-10_elephant_10_n02504013_6903.JPEG
cornet-s,1,344,NaN,elephant,elephant,4-0-10,0344_eid_dnn_4-0-10_elephant_10_n02504013_7538.JPEG
cornet-s,1,345,NaN,elephant,elephant,4-0-10,0345_eid_dnn_4-0-10_elephant_10_n02504013_4071.JPEG
cornet-s,1,346,NaN,dog,elephant,4-0-10,0346_eid_dnn_4-0-10_elephant_10_n02504013_10628.JPEG
cornet-s,1,347,NaN,elephant,elephant,4-0-10,0347_eid_dnn_4-0-10_elephant_10_n02504013_7719.JPEG
cornet-s,1,348,NaN,dog,elephant,4-0-10,0348_eid_dnn_4-0-10_elephant_10_n02504458_929.JPEG
cornet-s,1,349,NaN,elephant,elephant,4-0-10,0349_eid_dnn_4-0-10_elephant_10_n02504458_6736.JPEG
cornet-s,1,350,NaN,elephant,elephant,4-0-10,0350_eid_dnn_4-0-10_elephant_10_n02504458_9354.JPEG
cornet-s,1,351,NaN,bottle,bicycle,4-0-10,0351_eid_dnn_4-0-10_bicycle_10_n02835271_8780.JPEG
cornet-s,1,352,NaN,dog,bicycle,4-0-10,0352_eid_dnn_4-0-10_bicycle_10_n02835271_1076.JPEG
cornet-s,1,353,NaN,bear,bicycle,4-0-10,0353_eid_dnn_4-0-10_bicycle_10_n03792782_15.JPEG
cornet-s,1,354,NaN,bicycle,bicycle,4-0-10,0354_eid_dnn_4-0-10_bicycle_10_n03792782_11911.JPEG
cornet-s,1,355,NaN,elephant,bicycle,4-0-10,0355_eid_dnn_4-0-10_bicycle_10_n02835271_20637.JPEG
cornet-s,1,356,NaN,elephant,bicycle,4-0-10,0356_eid_dnn_4-0-10_bicycle_10_n02835271_13023.JPEG
cornet-s,1,357,NaN,dog,bicycle,4-0-10,0357_eid_dnn_4-0-10_bicycle_10_n02835271_2525.JPEG
cornet-s,1,358,NaN,bicycle,bicycle,4-0-10,0358_eid_dnn_4-0-10_bicycle_10_n02835271_1895.JPEG
cornet-s,1,359,NaN,bicycle,bicycle,4-0-10,0359_eid_dnn_4-0-10_bicycle_10_n02835271_7621.JPEG
cornet-s,1,360,NaN,chair,bicycle,4-0-10,0360_eid_dnn_4-0-10_bicycle_10_n02835271_9135.JPEG
cornet-s,1,361,NaN,airplane,airplane,4-0-10,0361_eid_dnn_4-0-10_airplane_10_n02690373_8770.JPEG
cornet-s,1,362,NaN,boat,airplane,4-0-10,0362_eid_dnn_4-0-10_airplane_10_n02690373_9802.JPEG
cornet-s,1,363,NaN,airplane,airplane,4-0-10,0363_eid_dnn_4-0-10_airplane_10_n02690373_6789.JPEG
cornet-s,1,364,NaN,airplane,airplane,4-0-10,0364_eid_dnn_4-0-10_airplane_10_n02690373_4507.JPEG
cornet-s,1,365,NaN,airplane,airplane,4-0-10,0365_eid_dnn_4-0-10_airplane_10_n02690373_3542.JPEG
cornet-s,1,366,NaN,cat,airplane,4-0-10,0366_eid_dnn_4-0-10_airplane_10_n02690373_152.JPEG
cornet-s,1,367,NaN,airplane,airplane,4-0-10,0367_eid_dnn_4-0-10_airplane_10_n02690373_7075.JPEG
cornet-s,1,368,NaN,airplane,airplane,4-0-10,0368_eid_dnn_4-0-10_airplane_10_n02690373_2150.JPEG
cornet-s,1,369,NaN,airplane,airplane,4-0-10,0369_eid_dnn_4-0-10_airplane_10_n02690373_10354.JPEG
cornet-s,1,370,NaN,airplane,airplane,4-0-10,0370_eid_dnn_4-0-10_airplane_10_n02690373_3400.JPEG
cornet-s,1,371,NaN,bottle,clock,4-0-10,0371_eid_dnn_4-0-10_clock_10_n02708093_3196.JPEG
cornet-s,1,372,NaN,clock,clock,4-0-10,0372_eid_dnn_4-0-10_clock_10_n03196217_3257.JPEG
cornet-s,1,373,NaN,bottle,clock,4-0-10,0373_eid_dnn_4-0-10_clock_10_n02708093_6731.JPEG
cornet-s,1,374,NaN,clock,clock,4-0-10,0374_eid_dnn_4-0-10_clock_10_n04548280_11828.JPEG
cornet-s,1,375,NaN,clock,clock,4-0-10,0375_eid_dnn_4-0-10_clock_10_n04548280_4198.JPEG
cornet-s,1,376,NaN,clock,clock,4-0-10,0376_eid_dnn_4-0-10_clock_10_n04548280_5701.JPEG
cornet-s,1,377,NaN,oven,clock,4-0-10,0377_eid_dnn_4-0-10_clock_10_n04548280_4475.JPEG
cornet-s,1,378,NaN,bottle,clock,4-0-10,0378_eid_dnn_4-0-10_clock_10_n03196217_6538.JPEG
cornet-s,1,379,NaN,clock,clock,4-0-10,0379_eid_dnn_4-0-10_clock_10_n04548280_2778.JPEG
cornet-s,1,380,NaN,bottle,clock,4-0-10,0380_eid_dnn_4-0-10_clock_10_n04548280_1896.JPEG
cornet-s,1,381,NaN,cat,oven,4-0-10,0381_eid_dnn_4-0-10_oven_10_n04111531_10419.JPEG
cornet-s,1,382,NaN,oven,oven,4-0-10,0382_eid_dnn_4-0-10_oven_10_n04111531_8984.JPEG
cornet-s,1,383,NaN,oven,oven,4-0-10,0383_eid_dnn_4-0-10_oven_10_n04111531_5967.JPEG
cornet-s,1,384,NaN,oven,oven,4-0-10,0384_eid_dnn_4-0-10_oven_10_n04111531_7728.JPEG
cornet-s,1,385,NaN,oven,oven,4-0-10,0385_eid_dnn_4-0-10_oven_10_n04111531_15667.JPEG
cornet-s,1,386,NaN,elephant,oven,4-0-10,0386_eid_dnn_4-0-10_oven_10_n04111531_7878.JPEG
cornet-s,1,387,NaN,bottle,oven,4-0-10,0387_eid_dnn_4-0-10_oven_10_n04111531_627.JPEG
cornet-s,1,388,NaN,bottle,oven,4-0-10,0388_eid_dnn_4-0-10_oven_10_n04111531_6094.JPEG
cornet-s,1,389,NaN,bottle,oven,4-0-10,0389_eid_dnn_4-0-10_oven_10_n04111531_458.JPEG
cornet-s,1,390,NaN,bottle,oven,4-0-10,0390_eid_dnn_4-0-10_oven_10_n04111531_5906.JPEG
cornet-s,1,391,NaN,chair,chair,4-0-10,0391_eid_dnn_4-0-10_chair_10_n03376595_6800.JPEG
cornet-s,1,392,NaN,chair,chair,4-0-10,0392_eid_dnn_4-0-10_chair_10_n03376595_579.JPEG
cornet-s,1,393,NaN,chair,chair,4-0-10,0393_eid_dnn_4-0-10_chair_10_n02791124_256.JPEG
cornet-s,1,394,NaN,bottle,chair,4-0-10,0394_eid_dnn_4-0-10_chair_10_n02791124_2859.JPEG
cornet-s,1,395,NaN,chair,chair,4-0-10,0395_eid_dnn_4-0-10_chair_10_n03376595_6986.JPEG
cornet-s,1,396,NaN,chair,chair,4-0-10,0396_eid_dnn_4-0-10_chair_10_n02791124_3081.JPEG
cornet-s,1,397,NaN,bird,chair,4-0-10,0397_eid_dnn_4-0-10_chair_10_n03376595_635.JPEG
cornet-s,1,398,NaN,bottle,chair,4-0-10,0398_eid_dnn_4-0-10_chair_10_n04099969_12279.JPEG
cornet-s,1,399,NaN,cat,chair,4-0-10,0399_eid_dnn_4-0-10_chair_10_n04099969_37485.JPEG
cornet-s,1,400,NaN,chair,chair,4-0-10,0400_eid_dnn_4-0-10_chair_10_n03376595_11533.JPEG
cornet-s,1,401,NaN,bear,bear,4-0-10,0401_eid_dnn_4-0-10_bear_10_n02133161_1716.JPEG
cornet-s,1,402,NaN,bear,bear,4-0-10,0402_eid_dnn_4-0-10_bear_10_n02134084_8574.JPEG
cornet-s,1,403,NaN,dog,bear,4-0-10,0403_eid_dnn_4-0-10_bear_10_n02134418_1084.JPEG
cornet-s,1,404,NaN,bear,bear,4-0-10,0404_eid_dnn_4-0-10_bear_10_n02133161_2124.JPEG
cornet-s,1,405,NaN,elephant,bear,4-0-10,0405_eid_dnn_4-0-10_bear_10_n02133161_10190.JPEG
cornet-s,1,406,NaN,elephant,bear,4-0-10,0406_eid_dnn_4-0-10_bear_10_n02133161_3181.JPEG
cornet-s,1,407,NaN,dog,bear,4-0-10,0407_eid_dnn_4-0-10_bear_10_n02134084_10447.JPEG
cornet-s,1,408,NaN,dog,bear,4-0-10,0408_eid_dnn_4-0-10_bear_10_n02132136_8028.JPEG
cornet-s,1,409,NaN,bear,bear,4-0-10,0409_eid_dnn_4-0-10_bear_10_n02134084_5827.JPEG
cornet-s,1,410,NaN,boat,bear,4-0-10,0410_eid_dnn_4-0-10_bear_10_n02134084_3177.JPEG
cornet-s,1,411,NaN,elephant,boat,4-0-10,0411_eid_dnn_4-0-10_boat_10_n02951358_13017.JPEG
cornet-s,1,412,NaN,boat,boat,4-0-10,0412_eid_dnn_4-0-10_boat_10_n03344393_4012.JPEG
cornet-s,1,413,NaN,boat,boat,4-0-10,0413_eid_dnn_4-0-10_boat_10_n02951358_35330.JPEG
cornet-s,1,414,NaN,boat,boat,4-0-10,0414_eid_dnn_4-0-10_boat_10_n03662601_5321.JPEG
cornet-s,1,415,NaN,truck,boat,4-0-10,0415_eid_dnn_4-0-10_boat_10_n03662601_16414.JPEG
cornet-s,1,416,NaN,elephant,boat,4-0-10,0416_eid_dnn_4-0-10_boat_10_n02951358_1190.JPEG
cornet-s,1,417,NaN,elephant,boat,4-0-10,0417_eid_dnn_4-0-10_boat_10_n04612504_5712.JPEG
cornet-s,1,418,NaN,boat,boat,4-0-10,0418_eid_dnn_4-0-10_boat_10_n04273569_10980.JPEG
cornet-s,1,419,NaN,boat,boat,4-0-10,0419_eid_dnn_4-0-10_boat_10_n04612504_8284.JPEG
cornet-s,1,420,NaN,boat,boat,4-0-10,0420_eid_dnn_4-0-10_boat_10_n04612504_6144.JPEG
cornet-s,1,421,NaN,cat,cat,4-0-10,0421_eid_dnn_4-0-10_cat_10_n02123394_8226.JPEG
cornet-s,1,422,NaN,cat,cat,4-0-10,0422_eid_dnn_4-0-10_cat_10_n02124075_13678.JPEG
cornet-s,1,423,NaN,cat,cat,4-0-10,0423_eid_dnn_4-0-10_cat_10_n02123045_8056.JPEG
cornet-s,1,424,NaN,dog,cat,4-0-10,0424_eid_dnn_4-0-10_cat_10_n02125311_18402.JPEG
cornet-s,1,425,NaN,cat,cat,4-0-10,0425_eid_dnn_4-0-10_cat_10_n02123597_13901.JPEG
cornet-s,1,426,NaN,cat,cat,4-0-10,0426_eid_dnn_4-0-10_cat_10_n02123159_793.JPEG
cornet-s,1,427,NaN,cat,cat,4-0-10,0427_eid_dnn_4-0-10_cat_10_n02123159_6696.JPEG
cornet-s,1,428,NaN,cat,cat,4-0-10,0428_eid_dnn_4-0-10_cat_10_n02123597_5059.JPEG
cornet-s,1,429,NaN,knife,cat,4-0-10,0429_eid_dnn_4-0-10_cat_10_n02124075_7477.JPEG
cornet-s,1,430,NaN,cat,cat,4-0-10,0430_eid_dnn_4-0-10_cat_10_n02123597_5725.JPEG
cornet-s,1,431,NaN,dog,bottle,4-0-10,0431_eid_dnn_4-0-10_bottle_10_n02823428_5976.JPEG
cornet-s,1,432,NaN,bottle,bottle,4-0-10,0432_eid_dnn_4-0-10_bottle_10_n04557648_9691.JPEG
cornet-s,1,433,NaN,bottle,bottle,4-0-10,0433_eid_dnn_4-0-10_bottle_10_n03937543_1642.JPEG
cornet-s,1,434,NaN,dog,bottle,4-0-10,0434_eid_dnn_4-0-10_bottle_10_n04579145_815.JPEG
cornet-s,1,435,NaN,bottle,bottle,4-0-10,0435_eid_dnn_4-0-10_bottle_10_n03983396_3109.JPEG
cornet-s,1,436,NaN,bottle,bottle,4-0-10,0436_eid_dnn_4-0-10_bottle_10_n04560804_944.JPEG
cornet-s,1,437,NaN,bottle,bottle,4-0-10,0437_eid_dnn_4-0-10_bottle_10_n04560804_6470.JPEG
cornet-s,1,438,NaN,knife,bottle,4-0-10,0438_eid_dnn_4-0-10_bottle_10_n04591713_3522.JPEG
cornet-s,1,439,NaN,bottle,bottle,4-0-10,0439_eid_dnn_4-0-10_bottle_10_n03983396_12936.JPEG
cornet-s,1,440,NaN,bottle,bottle,4-0-10,0440_eid_dnn_4-0-10_bottle_10_n03937543_2552.JPEG
cornet-s,1,441,NaN,chair,truck,4-0-10,0441_eid_dnn_4-0-10_truck_10_n03417042_1348.JPEG
cornet-s,1,442,NaN,truck,truck,4-0-10,0442_eid_dnn_4-0-10_truck_10_n04467665_21379.JPEG
cornet-s,1,443,NaN,truck,truck,4-0-10,0443_eid_dnn_4-0-10_truck_10_n03796401_18976.JPEG
cornet-s,1,444,NaN,truck,truck,4-0-10,0444_eid_dnn_4-0-10_truck_10_n03417042_28519.JPEG
cornet-s,1,445,NaN,clock,truck,4-0-10,0445_eid_dnn_4-0-10_truck_10_n04467665_69171.JPEG
cornet-s,1,446,NaN,truck,truck,4-0-10,0446_eid_dnn_4-0-10_truck_10_n03417042_10594.JPEG
cornet-s,1,447,NaN,truck,truck,4-0-10,0447_eid_dnn_4-0-10_truck_10_n03796401_5535.JPEG
cornet-s,1,448,NaN,truck,truck,4-0-10,0448_eid_dnn_4-0-10_truck_10_n03796401_25364.JPEG
cornet-s,1,449,NaN,truck,truck,4-0-10,0449_eid_dnn_4-0-10_truck_10_n03796401_8463.JPEG
cornet-s,1,450,NaN,truck,truck,4-0-10,0450_eid_dnn_4-0-10_truck_10_n03417042_10752.JPEG
cornet-s,1,451,NaN,car,car,4-0-10,0451_eid_dnn_4-0-10_car_10_n02814533_79224.JPEG
cornet-s,1,452,NaN,car,car,4-0-10,0452_eid_dnn_4-0-10_car_10_n03100240_6954.JPEG
cornet-s,1,453,NaN,dog,car,4-0-10,0453_eid_dnn_4-0-10_car_10_n04285008_1754.JPEG
cornet-s,1,454,NaN,knife,car,4-0-10,0454_eid_dnn_4-0-10_car_10_n03100240_8547.JPEG
cornet-s,1,455,NaN,truck,car,4-0-10,0455_eid_dnn_4-0-10_car_10_n02814533_94541.JPEG
cornet-s,1,456,NaN,elephant,car,4-0-10,0456_eid_dnn_4-0-10_car_10_n04285008_7950.JPEG
cornet-s,1,457,NaN,bear,car,4-0-10,0457_eid_dnn_4-0-10_car_10_n03100240_5121.JPEG
cornet-s,1,458,NaN,car,car,4-0-10,0458_eid_dnn_4-0-10_car_10_n02814533_13802.JPEG
cornet-s,1,459,NaN,car,car,4-0-10,0459_eid_dnn_4-0-10_car_10_n03100240_15693.JPEG
cornet-s,1,460,NaN,car,car,4-0-10,0460_eid_dnn_4-0-10_car_10_n04285008_9942.JPEG
cornet-s,1,461,NaN,bird,bird,4-0-10,0461_eid_dnn_4-0-10_bird_10_n02006656_1040.JPEG
cornet-s,1,462,NaN,cat,bird,4-0-10,0462_eid_dnn_4-0-10_bird_10_n01855672_53648.JPEG
cornet-s,1,463,NaN,dog,bird,4-0-10,0463_eid_dnn_4-0-10_bird_10_n02027492_2077.JPEG
cornet-s,1,464,NaN,bear,bird,4-0-10,0464_eid_dnn_4-0-10_bird_10_n02007558_12538.JPEG
cornet-s,1,465,NaN,dog,bird,4-0-10,0465_eid_dnn_4-0-10_bird_10_n02002556_6062.JPEG
cornet-s,1,466,NaN,bear,bird,4-0-10,0466_eid_dnn_4-0-10_bird_10_n01820546_2758.JPEG
cornet-s,1,467,NaN,cat,bird,4-0-10,0467_eid_dnn_4-0-10_bird_10_n02009912_1642.JPEG
cornet-s,1,468,NaN,boat,bird,4-0-10,0468_eid_dnn_4-0-10_bird_10_n01855032_7293.JPEG
cornet-s,1,469,NaN,cat,bird,4-0-10,0469_eid_dnn_4-0-10_bird_10_n02002724_831.JPEG
cornet-s,1,470,NaN,airplane,bird,4-0-10,0470_eid_dnn_4-0-10_bird_10_n02002556_9195.JPEG
cornet-s,1,471,NaN,dog,dog,4-0-10,0471_eid_dnn_4-0-10_dog_10_n02090721_309.JPEG
cornet-s,1,472,NaN,dog,dog,4-0-10,0472_eid_dnn_4-0-10_dog_10_n02092339_6430.JPEG
cornet-s,1,473,NaN,dog,dog,4-0-10,0473_eid_dnn_4-0-10_dog_10_n02111500_5962.JPEG
cornet-s,1,474,NaN,dog,dog,4-0-10,0474_eid_dnn_4-0-10_dog_10_n02097658_101.JPEG
cornet-s,1,475,NaN,dog,dog,4-0-10,0475_eid_dnn_4-0-10_dog_10_n02106166_21590.JPEG
cornet-s,1,476,NaN,dog,dog,4-0-10,0476_eid_dnn_4-0-10_dog_10_n02091635_1417.JPEG
cornet-s,1,477,NaN,dog,dog,4-0-10,0477_eid_dnn_4-0-10_dog_10_n02094114_1059.JPEG
cornet-s,1,478,NaN,dog,dog,4-0-10,0478_eid_dnn_4-0-10_dog_10_n02102480_8198.JPEG
cornet-s,1,479,NaN,dog,dog,4-0-10,0479_eid_dnn_4-0-10_dog_10_n02110185_6348.JPEG
cornet-s,1,480,NaN,dog,dog,4-0-10,0480_eid_dnn_4-0-10_dog_10_n02106662_2288.JPEG
cornet-s,1,481,NaN,cat,knife,8-0-10,0481_eid_dnn_8-0-10_knife_10_n03041632_13424.JPEG
cornet-s,1,482,NaN,dog,knife,8-0-10,0482_eid_dnn_8-0-10_knife_10_n03041632_31367.JPEG
cornet-s,1,483,NaN,bear,knife,8-0-10,0483_eid_dnn_8-0-10_knife_10_n03041632_32197.JPEG
cornet-s,1,484,NaN,dog,knife,8-0-10,0484_eid_dnn_8-0-10_knife_10_n03041632_39883.JPEG
cornet-s,1,485,NaN,cat,knife,8-0-10,0485_eid_dnn_8-0-10_knife_10_n03041632_54627.JPEG
cornet-s,1,486,NaN,dog,knife,8-0-10,0486_eid_dnn_8-0-10_knife_10_n03041632_43506.JPEG
cornet-s,1,487,NaN,dog,knife,8-0-10,0487_eid_dnn_8-0-10_knife_10_n03041632_30196.JPEG
cornet-s,1,488,NaN,dog,knife,8-0-10,0488_eid_dnn_8-0-10_knife_10_n03041632_33326.JPEG
cornet-s,1,489,NaN,dog,knife,8-0-10,0489_eid_dnn_8-0-10_knife_10_n03041632_927.JPEG
cornet-s,1,490,NaN,dog,knife,8-0-10,0490_eid_dnn_8-0-10_knife_10_n03041632_32337.JPEG
cornet-s,1,491,NaN,dog,keyboard,8-0-10,0491_eid_dnn_8-0-10_keyboard_10_n04505470_8610.JPEG
cornet-s,1,492,NaN,dog,keyboard,8-0-10,0492_eid_dnn_8-0-10_keyboard_10_n03085013_12492.JPEG
cornet-s,1,493,NaN,cat,keyboard,8-0-10,0493_eid_dnn_8-0-10_keyboard_10_n03085013_12708.JPEG
cornet-s,1,494,NaN,dog,keyboard,8-0-10,0494_eid_dnn_8-0-10_keyboard_10_n04505470_4595.JPEG
cornet-s,1,495,NaN,dog,keyboard,8-0-10,0495_eid_dnn_8-0-10_keyboard_10_n03085013_4281.JPEG
cornet-s,1,496,NaN,dog,keyboard,8-0-10,0496_eid_dnn_8-0-10_keyboard_10_n03085013_108.JPEG
cornet-s,1,497,NaN,cat,keyboard,8-0-10,0497_eid_dnn_8-0-10_keyboard_10_n03085013_23221.JPEG
cornet-s,1,498,NaN,cat,keyboard,8-0-10,0498_eid_dnn_8-0-10_keyboard_10_n03085013_11399.JPEG
cornet-s,1,499,NaN,cat,keyboard,8-0-10,0499_eid_dnn_8-0-10_keyboard_10_n03085013_20716.JPEG
cornet-s,1,500,NaN,dog,keyboard,8-0-10,0500_eid_dnn_8-0-10_keyboard_10_n04505470_4627.JPEG
cornet-s,1,501,NaN,dog,elephant,8-0-10,0501_eid_dnn_8-0-10_elephant_10_n02504013_2163.JPEG
cornet-s,1,502,NaN,cat,elephant,8-0-10,0502_eid_dnn_8-0-10_elephant_10_n02504013_7026.JPEG
cornet-s,1,503,NaN,dog,elephant,8-0-10,0503_eid_dnn_8-0-10_elephant_10_n02504013_10346.JPEG
cornet-s,1,504,NaN,elephant,elephant,8-0-10,0504_eid_dnn_8-0-10_elephant_10_n02504013_7314.JPEG
cornet-s,1,505,NaN,elephant,elephant,8-0-10,0505_eid_dnn_8-0-10_elephant_10_n02504458_4643.JPEG
cornet-s,1,506,NaN,bicycle,elephant,8-0-10,0506_eid_dnn_8-0-10_elephant_10_n02504458_2595.JPEG
cornet-s,1,507,NaN,elephant,elephant,8-0-10,0507_eid_dnn_8-0-10_elephant_10_n02504013_5945.JPEG
cornet-s,1,508,NaN,elephant,elephant,8-0-10,0508_eid_dnn_8-0-10_elephant_10_n02504013_2332.JPEG
cornet-s,1,509,NaN,dog,elephant,8-0-10,0509_eid_dnn_8-0-10_elephant_10_n02504013_3861.JPEG
cornet-s,1,510,NaN,elephant,elephant,8-0-10,0510_eid_dnn_8-0-10_elephant_10_n02504013_6880.JPEG
cornet-s,1,511,NaN,cat,bicycle,8-0-10,0511_eid_dnn_8-0-10_bicycle_10_n02835271_10645.JPEG
cornet-s,1,512,NaN,dog,bicycle,8-0-10,0512_eid_dnn_8-0-10_bicycle_10_n02835271_5986.JPEG
cornet-s,1,513,NaN,dog,bicycle,8-0-10,0513_eid_dnn_8-0-10_bicycle_10_n03792782_54196.JPEG
cornet-s,1,514,NaN,dog,bicycle,8-0-10,0514_eid_dnn_8-0-10_bicycle_10_n03792782_56250.JPEG
cornet-s,1,515,NaN,elephant,bicycle,8-0-10,0515_eid_dnn_8-0-10_bicycle_10_n02835271_20750.JPEG
cornet-s,1,516,NaN,dog,bicycle,8-0-10,0516_eid_dnn_8-0-10_bicycle_10_n02835271_21185.JPEG
cornet-s,1,517,NaN,cat,bicycle,8-0-10,0517_eid_dnn_8-0-10_bicycle_10_n03792782_2805.JPEG
cornet-s,1,518,NaN,dog,bicycle,8-0-10,0518_eid_dnn_8-0-10_bicycle_10_n02835271_8618.JPEG
cornet-s,1,519,NaN,cat,bicycle,8-0-10,0519_eid_dnn_8-0-10_bicycle_10_n02835271_14743.JPEG
cornet-s,1,520,NaN,dog,bicycle,8-0-10,0520_eid_dnn_8-0-10_bicycle_10_n03792782_70724.JPEG
cornet-s,1,521,NaN,cat,airplane,8-0-10,0521_eid_dnn_8-0-10_airplane_10_n02690373_15472.JPEG
cornet-s,1,522,NaN,dog,airplane,8-0-10,0522_eid_dnn_8-0-10_airplane_10_n02690373_3326.JPEG
cornet-s,1,523,NaN,bear,airplane,8-0-10,0523_eid_dnn_8-0-10_airplane_10_n02690373_9401.JPEG
cornet-s,1,524,NaN,elephant,airplane,8-0-10,0524_eid_dnn_8-0-10_airplane_10_n02690373_5624.JPEG
cornet-s,1,525,NaN,cat,airplane,8-0-10,0525_eid_dnn_8-0-10_airplane_10_n02690373_633.JPEG
cornet-s,1,526,NaN,cat,airplane,8-0-10,0526_eid_dnn_8-0-10_airplane_10_n02690373_1547.JPEG
cornet-s,1,527,NaN,boat,airplane,8-0-10,0527_eid_dnn_8-0-10_airplane_10_n02690373_10203.JPEG
cornet-s,1,528,NaN,cat,airplane,8-0-10,0528_eid_dnn_8-0-10_airplane_10_n02690373_3956.JPEG
cornet-s,1,529,NaN,bear,airplane,8-0-10,0529_eid_dnn_8-0-10_airplane_10_n02690373_8304.JPEG
cornet-s,1,530,NaN,knife,airplane,8-0-10,0530_eid_dnn_8-0-10_airplane_10_n02690373_4691.JPEG
cornet-s,1,531,NaN,cat,clock,8-0-10,0531_eid_dnn_8-0-10_clock_10_n03196217_4368.JPEG
cornet-s,1,532,NaN,knife,clock,8-0-10,0532_eid_dnn_8-0-10_clock_10_n02708093_8229.JPEG
cornet-s,1,533,NaN,dog,clock,8-0-10,0533_eid_dnn_8-0-10_clock_10_n03196217_9343.JPEG
cornet-s,1,534,NaN,knife,clock,8-0-10,0534_eid_dnn_8-0-10_clock_10_n04548280_7930.JPEG
cornet-s,1,535,NaN,bear,clock,8-0-10,0535_eid_dnn_8-0-10_clock_10_n03196217_5581.JPEG
cornet-s,1,536,NaN,dog,clock,8-0-10,0536_eid_dnn_8-0-10_clock_10_n04548280_1222.JPEG
cornet-s,1,537,NaN,dog,clock,8-0-10,0537_eid_dnn_8-0-10_clock_10_n03196217_7467.JPEG
cornet-s,1,538,NaN,clock,clock,8-0-10,0538_eid_dnn_8-0-10_clock_10_n04548280_3708.JPEG
cornet-s,1,539,NaN,dog,clock,8-0-10,0539_eid_dnn_8-0-10_clock_10_n03196217_2291.JPEG
cornet-s,1,540,NaN,dog,clock,8-0-10,0540_eid_dnn_8-0-10_clock_10_n04548280_8892.JPEG
cornet-s,1,541,NaN,dog,oven,8-0-10,0541_eid_dnn_8-0-10_oven_10_n04111531_22916.JPEG
cornet-s,1,542,NaN,elephant,oven,8-0-10,0542_eid_dnn_8-0-10_oven_10_n04111531_8421.JPEG
cornet-s,1,543,NaN,dog,oven,8-0-10,0543_eid_dnn_8-0-10_oven_10_n04111531_13625.JPEG
cornet-s,1,544,NaN,dog,oven,8-0-10,0544_eid_dnn_8-0-10_oven_10_n04111531_20953.JPEG
cornet-s,1,545,NaN,cat,oven,8-0-10,0545_eid_dnn_8-0-10_oven_10_n04111531_21460.JPEG
cornet-s,1,546,NaN,cat,oven,8-0-10,0546_eid_dnn_8-0-10_oven_10_n04111531_14055.JPEG
cornet-s,1,547,NaN,dog,oven,8-0-10,0547_eid_dnn_8-0-10_oven_10_n04111531_1128.JPEG
cornet-s,1,548,NaN,dog,oven,8-0-10,0548_eid_dnn_8-0-10_oven_10_n04111531_766.JPEG
cornet-s,1,549,NaN,dog,oven,8-0-10,0549_eid_dnn_8-0-10_oven_10_n04111531_7764.JPEG
cornet-s,1,550,NaN,dog,oven,8-0-10,0550_eid_dnn_8-0-10_oven_10_n04111531_4418.JPEG
cornet-s,1,551,NaN,chair,chair,8-0-10,0551_eid_dnn_8-0-10_chair_10_n04099969_19966.JPEG
cornet-s,1,552,NaN,dog,chair,8-0-10,0552_eid_dnn_8-0-10_chair_10_n04099969_9079.JPEG
cornet-s,1,553,NaN,dog,chair,8-0-10,0553_eid_dnn_8-0-10_chair_10_n04099969_755.JPEG
cornet-s,1,554,NaN,dog,chair,8-0-10,0554_eid_dnn_8-0-10_chair_10_n02791124_3476.JPEG
cornet-s,1,555,NaN,dog,chair,8-0-10,0555_eid_dnn_8-0-10_chair_10_n02791124_2105.JPEG
cornet-s,1,556,NaN,dog,chair,8-0-10,0556_eid_dnn_8-0-10_chair_10_n02791124_241.JPEG
cornet-s,1,557,NaN,elephant,chair,8-0-10,0557_eid_dnn_8-0-10_chair_10_n04099969_2868.JPEG
cornet-s,1,558,NaN,dog,chair,8-0-10,0558_eid_dnn_8-0-10_chair_10_n02791124_1292.JPEG
cornet-s,1,559,NaN,elephant,chair,8-0-10,0559_eid_dnn_8-0-10_chair_10_n02791124_16885.JPEG
cornet-s,1,560,NaN,dog,chair,8-0-10,0560_eid_dnn_8-0-10_chair_10_n04099969_14819.JPEG
cornet-s,1,561,NaN,dog,bear,8-0-10,0561_eid_dnn_8-0-10_bear_10_n02133161_1433.JPEG
cornet-s,1,562,NaN,dog,bear,8-0-10,0562_eid_dnn_8-0-10_bear_10_n02133161_498.JPEG
cornet-s,1,563,NaN,dog,bear,8-0-10,0563_eid_dnn_8-0-10_bear_10_n02134418_723.JPEG
cornet-s,1,564,NaN,bear,bear,8-0-10,0564_eid_dnn_8-0-10_bear_10_n02134418_5363.JPEG
cornet-s,1,565,NaN,dog,bear,8-0-10,0565_eid_dnn_8-0-10_bear_10_n02134084_4859.JPEG
cornet-s,1,566,NaN,dog,bear,8-0-10,0566_eid_dnn_8-0-10_bear_10_n02134084_10574.JPEG
cornet-s,1,567,NaN,dog,bear,8-0-10,0567_eid_dnn_8-0-10_bear_10_n02133161_6419.JPEG
cornet-s,1,568,NaN,dog,bear,8-0-10,0568_eid_dnn_8-0-10_bear_10_n02134084_4677.JPEG
cornet-s,1,569,NaN,cat,bear,8-0-10,0569_eid_dnn_8-0-10_bear_10_n02132136_686.JPEG
cornet-s,1,570,NaN,dog,bear,8-0-10,0570_eid_dnn_8-0-10_bear_10_n02132136_34191.JPEG
cornet-s,1,571,NaN,elephant,boat,8-0-10,0571_eid_dnn_8-0-10_boat_10_n03662601_17421.JPEG
cornet-s,1,572,NaN,dog,boat,8-0-10,0572_eid_dnn_8-0-10_boat_10_n04273569_1147.JPEG
cornet-s,1,573,NaN,elephant,boat,8-0-10,0573_eid_dnn_8-0-10_boat_10_n03344393_6903.JPEG
cornet-s,1,574,NaN,dog,boat,8-0-10,0574_eid_dnn_8-0-10_boat_10_n03662601_5223.JPEG
cornet-s,1,575,NaN,dog,boat,8-0-10,0575_eid_dnn_8-0-10_boat_10_n03344393_8280.JPEG
cornet-s,1,576,NaN,dog,boat,8-0-10,0576_eid_dnn_8-0-10_boat_10_n02951358_19417.JPEG
cornet-s,1,577,NaN,boat,boat,8-0-10,0577_eid_dnn_8-0-10_boat_10_n03344393_1610.JPEG
cornet-s,1,578,NaN,bear,boat,8-0-10,0578_eid_dnn_8-0-10_boat_10_n04273569_9640.JPEG
cornet-s,1,579,NaN,bear,boat,8-0-10,0579_eid_dnn_8-0-10_boat_10_n04273569_3945.JPEG
cornet-s,1,580,NaN,dog,boat,8-0-10,0580_eid_dnn_8-0-10_boat_10_n04273569_29283.JPEG
cornet-s,1,581,NaN,elephant,cat,8-0-10,0581_eid_dnn_8-0-10_cat_10_n02123597_12794.JPEG
cornet-s,1,582,NaN,dog,cat,8-0-10,0582_eid_dnn_8-0-10_cat_10_n02123159_859.JPEG
cornet-s,1,583,NaN,cat,cat,8-0-10,0583_eid_dnn_8-0-10_cat_10_n02123045_10866.JPEG
cornet-s,1,584,NaN,elephant,cat,8-0-10,0584_eid_dnn_8-0-10_cat_10_n02124075_6065.JPEG
cornet-s,1,585,NaN,cat,cat,8-0-10,0585_eid_dnn_8-0-10_cat_10_n02123597_26.JPEG
cornet-s,1,586,NaN,airplane,cat,8-0-10,0586_eid_dnn_8-0-10_cat_10_n02123597_3498.JPEG
cornet-s,1,587,NaN,dog,cat,8-0-10,0587_eid_dnn_8-0-10_cat_10_n02124075_358.JPEG
cornet-s,1,588,NaN,dog,cat,8-0-10,0588_eid_dnn_8-0-10_cat_10_n02123045_8317.JPEG
cornet-s,1,589,NaN,cat,cat,8-0-10,0589_eid_dnn_8-0-10_cat_10_n02124075_10566.JPEG
cornet-s,1,590,NaN,cat,cat,8-0-10,0590_eid_dnn_8-0-10_cat_10_n02124075_5343.JPEG
cornet-s,1,591,NaN,cat,bottle,8-0-10,0591_eid_dnn_8-0-10_bottle_10_n04557648_3959.JPEG
cornet-s,1,592,NaN,dog,bottle,8-0-10,0592_eid_dnn_8-0-10_bottle_10_n04591713_13283.JPEG
cornet-s,1,593,NaN,dog,bottle,8-0-10,0593_eid_dnn_8-0-10_bottle_10_n04557648_1133.JPEG
cornet-s,1,594,NaN,dog,bottle,8-0-10,0594_eid_dnn_8-0-10_bottle_10_n04591713_6918.JPEG
cornet-s,1,595,NaN,dog,bottle,8-0-10,0595_eid_dnn_8-0-10_bottle_10_n04591713_5754.JPEG
cornet-s,1,596,NaN,dog,bottle,8-0-10,0596_eid_dnn_8-0-10_bottle_10_n04591713_4344.JPEG
cornet-s,1,597,NaN,bottle,bottle,8-0-10,0597_eid_dnn_8-0-10_bottle_10_n04557648_3778.JPEG
cornet-s,1,598,NaN,dog,bottle,8-0-10,0598_eid_dnn_8-0-10_bottle_10_n04560804_6886.JPEG
cornet-s,1,599,NaN,dog,bottle,8-0-10,0599_eid_dnn_8-0-10_bottle_10_n04591713_4675.JPEG
cornet-s,1,600,NaN,cat,bottle,8-0-10,0600_eid_dnn_8-0-10_bottle_10_n02823428_5947.JPEG
cornet-s,1,601,NaN,dog,truck,8-0-10,0601_eid_dnn_8-0-10_truck_10_n04467665_78038.JPEG
cornet-s,1,602,NaN,elephant,truck,8-0-10,0602_eid_dnn_8-0-10_truck_10_n03796401_6921.JPEG
cornet-s,1,603,NaN,dog,truck,8-0-10,0603_eid_dnn_8-0-10_truck_10_n03417042_6928.JPEG
cornet-s,1,604,NaN,dog,truck,8-0-10,0604_eid_dnn_8-0-10_truck_10_n03417042_10362.JPEG
cornet-s,1,605,NaN,cat,truck,8-0-10,0605_eid_dnn_8-0-10_truck_10_n04467665_7738.JPEG
cornet-s,1,606,NaN,cat,truck,8-0-10,0606_eid_dnn_8-0-10_truck_10_n04467665_749.JPEG
cornet-s,1,607,NaN,cat,truck,8-0-10,0607_eid_dnn_8-0-10_truck_10_n03417042_4614.JPEG
cornet-s,1,608,NaN,dog,truck,8-0-10,0608_eid_dnn_8-0-10_truck_10_n04467665_51397.JPEG
cornet-s,1,609,NaN,dog,truck,8-0-10,0609_eid_dnn_8-0-10_truck_10_n04467665_20622.JPEG
cornet-s,1,610,NaN,elephant,truck,8-0-10,0610_eid_dnn_8-0-10_truck_10_n03796401_11473.JPEG
cornet-s,1,611,NaN,knife,car,8-0-10,0611_eid_dnn_8-0-10_car_10_n02814533_1871.JPEG
cornet-s,1,612,NaN,dog,car,8-0-10,0612_eid_dnn_8-0-10_car_10_n04285008_9251.JPEG
cornet-s,1,613,NaN,dog,car,8-0-10,0613_eid_dnn_8-0-10_car_10_n02814533_67600.JPEG
cornet-s,1,614,NaN,dog,car,8-0-10,0614_eid_dnn_8-0-10_car_10_n03100240_2996.JPEG
cornet-s,1,615,NaN,elephant,car,8-0-10,0615_eid_dnn_8-0-10_car_10_n03100240_5716.JPEG
cornet-s,1,616,NaN,dog,car,8-0-10,0616_eid_dnn_8-0-10_car_10_n02814533_1297.JPEG
cornet-s,1,617,NaN,cat,car,8-0-10,0617_eid_dnn_8-0-10_car_10_n03100240_8012.JPEG
cornet-s,1,618,NaN,dog,car,8-0-10,0618_eid_dnn_8-0-10_car_10_n03100240_53.JPEG
cornet-s,1,619,NaN,cat,car,8-0-10,0619_eid_dnn_8-0-10_car_10_n04285008_4069.JPEG
cornet-s,1,620,NaN,elephant,car,8-0-10,0620_eid_dnn_8-0-10_car_10_n02814533_7984.JPEG
cornet-s,1,621,NaN,cat,bird,8-0-10,0621_eid_dnn_8-0-10_bird_10_n01532829_16199.JPEG
cornet-s,1,622,NaN,cat,bird,8-0-10,0622_eid_dnn_8-0-10_bird_10_n01843065_4912.JPEG
cornet-s,1,623,NaN,dog,bird,8-0-10,0623_eid_dnn_8-0-10_bird_10_n01530575_4935.JPEG
cornet-s,1,624,NaN,dog,bird,8-0-10,0624_eid_dnn_8-0-10_bird_10_n01616318_3138.JPEG
cornet-s,1,625,NaN,boat,bird,8-0-10,0625_eid_dnn_8-0-10_bird_10_n01860187_9816.JPEG
cornet-s,1,626,NaN,dog,bird,8-0-10,0626_eid_dnn_8-0-10_bird_10_n02011460_883.JPEG
cornet-s,1,627,NaN,dog,bird,8-0-10,0627_eid_dnn_8-0-10_bird_10_n02002556_5971.JPEG
cornet-s,1,628,NaN,dog,bird,8-0-10,0628_eid_dnn_8-0-10_bird_10_n01828970_4820.JPEG
cornet-s,1,629,NaN,dog,bird,8-0-10,0629_eid_dnn_8-0-10_bird_10_n02037110_10254.JPEG
cornet-s,1,630,NaN,bird,bird,8-0-10,0630_eid_dnn_8-0-10_bird_10_n01798484_1532.JPEG
cornet-s,1,631,NaN,dog,dog,8-0-10,0631_eid_dnn_8-0-10_dog_10_n02097474_9516.JPEG
cornet-s,1,632,NaN,dog,dog,8-0-10,0632_eid_dnn_8-0-10_dog_10_n02095570_1477.JPEG
cornet-s,1,633,NaN,dog,dog,8-0-10,0633_eid_dnn_8-0-10_dog_10_n02106662_29819.JPEG
cornet-s,1,634,NaN,dog,dog,8-0-10,0634_eid_dnn_8-0-10_dog_10_n02106166_3649.JPEG
cornet-s,1,635,NaN,dog,dog,8-0-10,0635_eid_dnn_8-0-10_dog_10_n02111277_4522.JPEG
cornet-s,1,636,NaN,cat,dog,8-0-10,0636_eid_dnn_8-0-10_dog_10_n02112350_3742.JPEG
cornet-s,1,637,NaN,dog,dog,8-0-10,0637_eid_dnn_8-0-10_dog_10_n02099712_4299.JPEG
cornet-s,1,638,NaN,dog,dog,8-0-10,0638_eid_dnn_8-0-10_dog_10_n02099429_5507.JPEG
cornet-s,1,639,NaN,dog,dog,8-0-10,0639_eid_dnn_8-0-10_dog_10_n02110185_7847.JPEG
cornet-s,1,640,NaN,dog,dog,8-0-10,0640_eid_dnn_8-0-10_dog_10_n02100583_4501.JPEG
cornet-s,1,641,NaN,dog,knife,16-0-10,0641_eid_dnn_16-0-10_knife_10_n03041632_7680.JPEG
cornet-s,1,642,NaN,dog,knife,16-0-10,0642_eid_dnn_16-0-10_knife_10_n03041632_5302.JPEG
cornet-s,1,643,NaN,dog,knife,16-0-10,0643_eid_dnn_16-0-10_knife_10_n03041632_13203.JPEG
cornet-s,1,644,NaN,dog,knife,16-0-10,0644_eid_dnn_16-0-10_knife_10_n03041632_30553.JPEG
cornet-s,1,645,NaN,cat,knife,16-0-10,0645_eid_dnn_16-0-10_knife_10_n03041632_28135.JPEG
cornet-s,1,646,NaN,dog,knife,16-0-10,0646_eid_dnn_16-0-10_knife_10_n03041632_992.JPEG
cornet-s,1,647,NaN,dog,knife,16-0-10,0647_eid_dnn_16-0-10_knife_10_n03041632_33225.JPEG
cornet-s,1,648,NaN,dog,knife,16-0-10,0648_eid_dnn_16-0-10_knife_10_n03041632_2644.JPEG
cornet-s,1,649,NaN,dog,knife,16-0-10,0649_eid_dnn_16-0-10_knife_10_n03041632_11358.JPEG
cornet-s,1,650,NaN,elephant,knife,16-0-10,0650_eid_dnn_16-0-10_knife_10_n03041632_3617.JPEG
cornet-s,1,651,NaN,cat,keyboard,16-0-10,0651_eid_dnn_16-0-10_keyboard_10_n04505470_8251.JPEG
cornet-s,1,652,NaN,dog,keyboard,16-0-10,0652_eid_dnn_16-0-10_keyboard_10_n03085013_18775.JPEG
cornet-s,1,653,NaN,dog,keyboard,16-0-10,0653_eid_dnn_16-0-10_keyboard_10_n03085013_4636.JPEG
cornet-s,1,654,NaN,cat,keyboard,16-0-10,0654_eid_dnn_16-0-10_keyboard_10_n03085013_20302.JPEG
cornet-s,1,655,NaN,dog,keyboard,16-0-10,0655_eid_dnn_16-0-10_keyboard_10_n03085013_20898.JPEG
cornet-s,1,656,NaN,dog,keyboard,16-0-10,0656_eid_dnn_16-0-10_keyboard_10_n03085013_21183.JPEG
cornet-s,1,657,NaN,bird,keyboard,16-0-10,0657_eid_dnn_16-0-10_keyboard_10_n04505470_4617.JPEG
cornet-s,1,658,NaN,dog,keyboard,16-0-10,0658_eid_dnn_16-0-10_keyboard_10_n04505470_3089.JPEG
cornet-s,1,659,NaN,dog,keyboard,16-0-10,0659_eid_dnn_16-0-10_keyboard_10_n03085013_6405.JPEG
cornet-s,1,660,NaN,dog,keyboard,16-0-10,0660_eid_dnn_16-0-10_keyboard_10_n04505470_4266.JPEG
cornet-s,1,661,NaN,dog,elephant,16-0-10,0661_eid_dnn_16-0-10_elephant_10_n02504013_6483.JPEG
cornet-s,1,662,NaN,dog,elephant,16-0-10,0662_eid_dnn_16-0-10_elephant_10_n02504458_5996.JPEG
cornet-s,1,663,NaN,elephant,elephant,16-0-10,0663_eid_dnn_16-0-10_elephant_10_n02504013_1585.JPEG
cornet-s,1,664,NaN,elephant,elephant,16-0-10,0664_eid_dnn_16-0-10_elephant_10_n02504013_4211.JPEG
cornet-s,1,665,NaN,cat,elephant,16-0-10,0665_eid_dnn_16-0-10_elephant_10_n02504458_7950.JPEG
cornet-s,1,666,NaN,dog,elephant,16-0-10,0666_eid_dnn_16-0-10_elephant_10_n02504013_6737.JPEG
cornet-s,1,667,NaN,dog,elephant,16-0-10,0667_eid_dnn_16-0-10_elephant_10_n02504013_6984.JPEG
cornet-s,1,668,NaN,dog,elephant,16-0-10,0668_eid_dnn_16-0-10_elephant_10_n02504013_1698.JPEG
cornet-s,1,669,NaN,dog,elephant,16-0-10,0669_eid_dnn_16-0-10_elephant_10_n02504458_6739.JPEG
cornet-s,1,670,NaN,elephant,elephant,16-0-10,0670_eid_dnn_16-0-10_elephant_10_n02504013_8237.JPEG
cornet-s,1,671,NaN,dog,bicycle,16-0-10,0671_eid_dnn_16-0-10_bicycle_10_n02835271_15925.JPEG
cornet-s,1,672,NaN,dog,bicycle,16-0-10,0672_eid_dnn_16-0-10_bicycle_10_n03792782_27435.JPEG
cornet-s,1,673,NaN,dog,bicycle,16-0-10,0673_eid_dnn_16-0-10_bicycle_10_n02835271_10747.JPEG
cornet-s,1,674,NaN,cat,bicycle,16-0-10,0674_eid_dnn_16-0-10_bicycle_10_n03792782_9280.JPEG
cornet-s,1,675,NaN,dog,bicycle,16-0-10,0675_eid_dnn_16-0-10_bicycle_10_n03792782_3176.JPEG
cornet-s,1,676,NaN,dog,bicycle,16-0-10,0676_eid_dnn_16-0-10_bicycle_10_n03792782_15059.JPEG
cornet-s,1,677,NaN,dog,bicycle,16-0-10,0677_eid_dnn_16-0-10_bicycle_10_n02835271_11099.JPEG
cornet-s,1,678,NaN,dog,bicycle,16-0-10,0678_eid_dnn_16-0-10_bicycle_10_n03792782_18746.JPEG
cornet-s,1,679,NaN,dog,bicycle,16-0-10,0679_eid_dnn_16-0-10_bicycle_10_n02835271_4962.JPEG
cornet-s,1,680,NaN,dog,bicycle,16-0-10,0680_eid_dnn_16-0-10_bicycle_10_n02835271_14914.JPEG
cornet-s,1,681,NaN,bird,airplane,16-0-10,0681_eid_dnn_16-0-10_airplane_10_n02690373_8765.JPEG
cornet-s,1,682,NaN,dog,airplane,16-0-10,0682_eid_dnn_16-0-10_airplane_10_n02690373_9642.JPEG
cornet-s,1,683,NaN,dog,airplane,16-0-10,0683_eid_dnn_16-0-10_airplane_10_n02690373_1589.JPEG
cornet-s,1,684,NaN,dog,airplane,16-0-10,0684_eid_dnn_16-0-10_airplane_10_n02690373_5967.JPEG
cornet-s,1,685,NaN,dog,airplane,16-0-10,0685_eid_dnn_16-0-10_airplane_10_n02690373_2967.JPEG
cornet-s,1,686,NaN,dog,airplane,16-0-10,0686_eid_dnn_16-0-10_airplane_10_n02690373_2692.JPEG
cornet-s,1,687,NaN,cat,airplane,16-0-10,0687_eid_dnn_16-0-10_airplane_10_n02690373_4818.JPEG
cornet-s,1,688,NaN,dog,airplane,16-0-10,0688_eid_dnn_16-0-10_airplane_10_n02690373_9.JPEG
cornet-s,1,689,NaN,bird,airplane,16-0-10,0689_eid_dnn_16-0-10_airplane_10_n02690373_13613.JPEG
cornet-s,1,690,NaN,cat,airplane,16-0-10,0690_eid_dnn_16-0-10_airplane_10_n02690373_3090.JPEG
cornet-s,1,691,NaN,dog,clock,16-0-10,0691_eid_dnn_16-0-10_clock_10_n04548280_3586.JPEG
cornet-s,1,692,NaN,dog,clock,16-0-10,0692_eid_dnn_16-0-10_clock_10_n04548280_5991.JPEG
cornet-s,1,693,NaN,dog,clock,16-0-10,0693_eid_dnn_16-0-10_clock_10_n03196217_4224.JPEG
cornet-s,1,694,NaN,dog,clock,16-0-10,0694_eid_dnn_16-0-10_clock_10_n03196217_6477.JPEG
cornet-s,1,695,NaN,dog,clock,16-0-10,0695_eid_dnn_16-0-10_clock_10_n03196217_1376.JPEG
cornet-s,1,696,NaN,dog,clock,16-0-10,0696_eid_dnn_16-0-10_clock_10_n03196217_778.JPEG
cornet-s,1,697,NaN,dog,clock,16-0-10,0697_eid_dnn_16-0-10_clock_10_n03196217_4718.JPEG
cornet-s,1,698,NaN,dog,clock,16-0-10,0698_eid_dnn_16-0-10_clock_10_n04548280_7565.JPEG
cornet-s,1,699,NaN,dog,clock,16-0-10,0699_eid_dnn_16-0-10_clock_10_n04548280_5556.JPEG
cornet-s,1,700,NaN,dog,clock,16-0-10,0700_eid_dnn_16-0-10_clock_10_n03196217_4840.JPEG
cornet-s,1,701,NaN,dog,oven,16-0-10,0701_eid_dnn_16-0-10_oven_10_n04111531_2630.JPEG
cornet-s,1,702,NaN,cat,oven,16-0-10,0702_eid_dnn_16-0-10_oven_10_n04111531_9411.JPEG
cornet-s,1,703,NaN,dog,oven,16-0-10,0703_eid_dnn_16-0-10_oven_10_n04111531_520.JPEG
cornet-s,1,704,NaN,dog,oven,16-0-10,0704_eid_dnn_16-0-10_oven_10_n04111531_136.JPEG
cornet-s,1,705,NaN,dog,oven,16-0-10,0705_eid_dnn_16-0-10_oven_10_n04111531_9208.JPEG
cornet-s,1,706,NaN,dog,oven,16-0-10,0706_eid_dnn_16-0-10_oven_10_n04111531_9939.JPEG
cornet-s,1,707,NaN,dog,oven,16-0-10,0707_eid_dnn_16-0-10_oven_10_n04111531_4665.JPEG
cornet-s,1,708,NaN,dog,oven,16-0-10,0708_eid_dnn_16-0-10_oven_10_n04111531_9702.JPEG
cornet-s,1,709,NaN,cat,oven,16-0-10,0709_eid_dnn_16-0-10_oven_10_n04111531_14441.JPEG
cornet-s,1,710,NaN,dog,oven,16-0-10,0710_eid_dnn_16-0-10_oven_10_n04111531_3082.JPEG
cornet-s,1,711,NaN,elephant,chair,16-0-10,0711_eid_dnn_16-0-10_chair_10_n02791124_1737.JPEG
cornet-s,1,712,NaN,dog,chair,16-0-10,0712_eid_dnn_16-0-10_chair_10_n02791124_16190.JPEG
cornet-s,1,713,NaN,dog,chair,16-0-10,0713_eid_dnn_16-0-10_chair_10_n04099969_15854.JPEG
cornet-s,1,714,NaN,dog,chair,16-0-10,0714_eid_dnn_16-0-10_chair_10_n04099969_6395.JPEG
cornet-s,1,715,NaN,dog,chair,16-0-10,0715_eid_dnn_16-0-10_chair_10_n04429376_50053.JPEG
cornet-s,1,716,NaN,dog,chair,16-0-10,0716_eid_dnn_16-0-10_chair_10_n04429376_24578.JPEG
cornet-s,1,717,NaN,cat,chair,16-0-10,0717_eid_dnn_16-0-10_chair_10_n03376595_11887.JPEG
cornet-s,1,718,NaN,dog,chair,16-0-10,0718_eid_dnn_16-0-10_chair_10_n04099969_9019.JPEG
cornet-s,1,719,NaN,dog,chair,16-0-10,0719_eid_dnn_16-0-10_chair_10_n02791124_3994.JPEG
cornet-s,1,720,NaN,dog,chair,16-0-10,0720_eid_dnn_16-0-10_chair_10_n02791124_7560.JPEG
cornet-s,1,721,NaN,dog,bear,16-0-10,0721_eid_dnn_16-0-10_bear_10_n02134418_851.JPEG
cornet-s,1,722,NaN,dog,bear,16-0-10,0722_eid_dnn_16-0-10_bear_10_n02134418_379.JPEG
cornet-s,1,723,NaN,dog,bear,16-0-10,0723_eid_dnn_16-0-10_bear_10_n02133161_3908.JPEG
cornet-s,1,724,NaN,dog,bear,16-0-10,0724_eid_dnn_16-0-10_bear_10_n02133161_10127.JPEG
cornet-s,1,725,NaN,dog,bear,16-0-10,0725_eid_dnn_16-0-10_bear_10_n02133161_4200.JPEG
cornet-s,1,726,NaN,dog,bear,16-0-10,0726_eid_dnn_16-0-10_bear_10_n02133161_5406.JPEG
cornet-s,1,727,NaN,dog,bear,16-0-10,0727_eid_dnn_16-0-10_bear_10_n02134418_3458.JPEG
cornet-s,1,728,NaN,dog,bear,16-0-10,0728_eid_dnn_16-0-10_bear_10_n02133161_16249.JPEG
cornet-s,1,729,NaN,dog,bear,16-0-10,0729_eid_dnn_16-0-10_bear_10_n02133161_4416.JPEG
cornet-s,1,730,NaN,airplane,bear,16-0-10,0730_eid_dnn_16-0-10_bear_10_n02134084_5957.JPEG
cornet-s,1,731,NaN,dog,boat,16-0-10,0731_eid_dnn_16-0-10_boat_10_n04273569_2040.JPEG
cornet-s,1,732,NaN,dog,boat,16-0-10,0732_eid_dnn_16-0-10_boat_10_n04273569_229.JPEG
cornet-s,1,733,NaN,dog,boat,16-0-10,0733_eid_dnn_16-0-10_boat_10_n03662601_5901.JPEG
cornet-s,1,734,NaN,cat,boat,16-0-10,0734_eid_dnn_16-0-10_boat_10_n04273569_4851.JPEG
cornet-s,1,735,NaN,dog,boat,16-0-10,0735_eid_dnn_16-0-10_boat_10_n04612504_2255.JPEG
cornet-s,1,736,NaN,dog,boat,16-0-10,0736_eid_dnn_16-0-10_boat_10_n04273569_2034.JPEG
cornet-s,1,737,NaN,dog,boat,16-0-10,0737_eid_dnn_16-0-10_boat_10_n03344393_10033.JPEG
cornet-s,1,738,NaN,dog,boat,16-0-10,0738_eid_dnn_16-0-10_boat_10_n02951358_11470.JPEG
cornet-s,1,739,NaN,airplane,boat,16-0-10,0739_eid_dnn_16-0-10_boat_10_n04273569_3886.JPEG
cornet-s,1,740,NaN,elephant,boat,16-0-10,0740_eid_dnn_16-0-10_boat_10_n02951358_6038.JPEG
cornet-s,1,741,NaN,cat,cat,16-0-10,0741_eid_dnn_16-0-10_cat_10_n02123394_5268.JPEG
cornet-s,1,742,NaN,dog,cat,16-0-10,0742_eid_dnn_16-0-10_cat_10_n02123394_2386.JPEG
cornet-s,1,743,NaN,dog,cat,16-0-10,0743_eid_dnn_16-0-10_cat_10_n02123597_11724.JPEG
cornet-s,1,744,NaN,dog,cat,16-0-10,0744_eid_dnn_16-0-10_cat_10_n02124075_2454.JPEG
cornet-s,1,745,NaN,dog,cat,16-0-10,0745_eid_dnn_16-0-10_cat_10_n02125311_35073.JPEG
cornet-s,1,746,NaN,dog,cat,16-0-10,0746_eid_dnn_16-0-10_cat_10_n02123159_7333.JPEG
cornet-s,1,747,NaN,dog,cat,16-0-10,0747_eid_dnn_16-0-10_cat_10_n02123394_4654.JPEG
cornet-s,1,748,NaN,dog,cat,16-0-10,0748_eid_dnn_16-0-10_cat_10_n02125311_23609.JPEG
cornet-s,1,749,NaN,dog,cat,16-0-10,0749_eid_dnn_16-0-10_cat_10_n02123159_6029.JPEG
cornet-s,1,750,NaN,cat,cat,16-0-10,0750_eid_dnn_16-0-10_cat_10_n02125311_6678.JPEG
cornet-s,1,751,NaN,dog,bottle,16-0-10,0751_eid_dnn_16-0-10_bottle_10_n03983396_10070.JPEG
cornet-s,1,752,NaN,dog,bottle,16-0-10,0752_eid_dnn_16-0-10_bottle_10_n04557648_2855.JPEG
cornet-s,1,753,NaN,dog,bottle,16-0-10,0753_eid_dnn_16-0-10_bottle_10_n04560804_26652.JPEG
cornet-s,1,754,NaN,dog,bottle,16-0-10,0754_eid_dnn_16-0-10_bottle_10_n04591713_703.JPEG
cornet-s,1,755,NaN,dog,bottle,16-0-10,0755_eid_dnn_16-0-10_bottle_10_n04591713_17618.JPEG
cornet-s,1,756,NaN,bird,bottle,16-0-10,0756_eid_dnn_16-0-10_bottle_10_n04591713_2362.JPEG
cornet-s,1,757,NaN,airplane,bottle,16-0-10,0757_eid_dnn_16-0-10_bottle_10_n04557648_2122.JPEG
cornet-s,1,758,NaN,dog,bottle,16-0-10,0758_eid_dnn_16-0-10_bottle_10_n02823428_8994.JPEG
cornet-s,1,759,NaN,dog,bottle,16-0-10,0759_eid_dnn_16-0-10_bottle_10_n04560804_168.JPEG
cornet-s,1,760,NaN,dog,bottle,16-0-10,0760_eid_dnn_16-0-10_bottle_10_n04557648_7372.JPEG
cornet-s,1,761,NaN,dog,truck,16-0-10,0761_eid_dnn_16-0-10_truck_10_n03417042_1479.JPEG
cornet-s,1,762,NaN,dog,truck,16-0-10,0762_eid_dnn_16-0-10_truck_10_n04467665_5313.JPEG
cornet-s,1,763,NaN,dog,truck,16-0-10,0763_eid_dnn_16-0-10_truck_10_n03796401_876.JPEG
cornet-s,1,764,NaN,dog,truck,16-0-10,0764_eid_dnn_16-0-10_truck_10_n03417042_2241.JPEG
cornet-s,1,765,NaN,dog,truck,16-0-10,0765_eid_dnn_16-0-10_truck_10_n03417042_29793.JPEG
cornet-s,1,766,NaN,dog,truck,16-0-10,0766_eid_dnn_16-0-10_truck_10_n04467665_65573.JPEG
cornet-s,1,767,NaN,dog,truck,16-0-10,0767_eid_dnn_16-0-10_truck_10_n03796401_13310.JPEG
cornet-s,1,768,NaN,dog,truck,16-0-10,0768_eid_dnn_16-0-10_truck_10_n03417042_27630.JPEG
cornet-s,1,769,NaN,dog,truck,16-0-10,0769_eid_dnn_16-0-10_truck_10_n03417042_889.JPEG
cornet-s,1,770,NaN,cat,truck,16-0-10,0770_eid_dnn_16-0-10_truck_10_n03417042_20892.JPEG
cornet-s,1,771,NaN,dog,car,16-0-10,0771_eid_dnn_16-0-10_car_10_n02814533_38719.JPEG
cornet-s,1,772,NaN,elephant,car,16-0-10,0772_eid_dnn_16-0-10_car_10_n03100240_2742.JPEG
cornet-s,1,773,NaN,dog,car,16-0-10,0773_eid_dnn_16-0-10_car_10_n04285008_5440.JPEG
cornet-s,1,774,NaN,cat,car,16-0-10,0774_eid_dnn_16-0-10_car_10_n03100240_1605.JPEG
cornet-s,1,775,NaN,cat,car,16-0-10,0775_eid_dnn_16-0-10_car_10_n03100240_3834.JPEG
cornet-s,1,776,NaN,dog,car,16-0-10,0776_eid_dnn_16-0-10_car_10_n03100240_7715.JPEG
cornet-s,1,777,NaN,dog,car,16-0-10,0777_eid_dnn_16-0-10_car_10_n03100240_4838.JPEG
cornet-s,1,778,NaN,dog,car,16-0-10,0778_eid_dnn_16-0-10_car_10_n03100240_15503.JPEG
cornet-s,1,779,NaN,dog,car,16-0-10,0779_eid_dnn_16-0-10_car_10_n03100240_4421.JPEG
cornet-s,1,780,NaN,cat,car,16-0-10,0780_eid_dnn_16-0-10_car_10_n03100240_4820.JPEG
cornet-s,1,781,NaN,knife,bird,16-0-10,0781_eid_dnn_16-0-10_bird_10_n01537544_22730.JPEG
cornet-s,1,782,NaN,dog,bird,16-0-10,0782_eid_dnn_16-0-10_bird_10_n02006656_10677.JPEG
cornet-s,1,783,NaN,dog,bird,16-0-10,0783_eid_dnn_16-0-10_bird_10_n01828970_4894.JPEG
cornet-s,1,784,NaN,dog,bird,16-0-10,0784_eid_dnn_16-0-10_bird_10_n02006656_1410.JPEG
cornet-s,1,785,NaN,dog,bird,16-0-10,0785_eid_dnn_16-0-10_bird_10_n01534433_31697.JPEG
cornet-s,1,786,NaN,cat,bird,16-0-10,0786_eid_dnn_16-0-10_bird_10_n01592084_1615.JPEG
cornet-s,1,787,NaN,dog,bird,16-0-10,0787_eid_dnn_16-0-10_bird_10_n01601694_23376.JPEG
cornet-s,1,788,NaN,dog,bird,16-0-10,0788_eid_dnn_16-0-10_bird_10_n02056570_1005.JPEG
cornet-s,1,789,NaN,dog,bird,16-0-10,0789_eid_dnn_16-0-10_bird_10_n02011460_610.JPEG
cornet-s,1,790,NaN,dog,bird,16-0-10,0790_eid_dnn_16-0-10_bird_10_n01820546_4043.JPEG
cornet-s,1,791,NaN,dog,dog,16-0-10,0791_eid_dnn_16-0-10_dog_10_n02106030_19249.JPEG
cornet-s,1,792,NaN,dog,dog,16-0-10,0792_eid_dnn_16-0-10_dog_10_n02098286_905.JPEG
cornet-s,1,793,NaN,airplane,dog,16-0-10,0793_eid_dnn_16-0-10_dog_10_n02099712_7196.JPEG
cornet-s,1,794,NaN,dog,dog,16-0-10,0794_eid_dnn_16-0-10_dog_10_n02108915_2326.JPEG
cornet-s,1,795,NaN,dog,dog,16-0-10,0795_eid_dnn_16-0-10_dog_10_n02106382_6936.JPEG
cornet-s,1,796,NaN,dog,dog,16-0-10,0796_eid_dnn_16-0-10_dog_10_n02102177_5770.JPEG
cornet-s,1,797,NaN,dog,dog,16-0-10,0797_eid_dnn_16-0-10_dog_10_n02105855_9866.JPEG
cornet-s,1,798,NaN,dog,dog,16-0-10,0798_eid_dnn_16-0-10_dog_10_n02094433_1443.JPEG
cornet-s,1,799,NaN,dog,dog,16-0-10,0799_eid_dnn_16-0-10_dog_10_n02088466_5897.JPEG
cornet-s,1,800,NaN,cat,dog,16-0-10,0800_eid_dnn_16-0-10_dog_10_n02102318_6578.JPEG
cornet-s,1,801,NaN,bird,knife,32-0-10,0801_eid_dnn_32-0-10_knife_10_n03041632_1964.JPEG
cornet-s,1,802,NaN,dog,knife,32-0-10,0802_eid_dnn_32-0-10_knife_10_n03041632_30286.JPEG
cornet-s,1,803,NaN,dog,knife,32-0-10,0803_eid_dnn_32-0-10_knife_10_n03041632_51225.JPEG
cornet-s,1,804,NaN,dog,knife,32-0-10,0804_eid_dnn_32-0-10_knife_10_n03041632_1661.JPEG
cornet-s,1,805,NaN,dog,knife,32-0-10,0805_eid_dnn_32-0-10_knife_10_n03041632_35116.JPEG
cornet-s,1,806,NaN,dog,knife,32-0-10,0806_eid_dnn_32-0-10_knife_10_n03041632_95293.JPEG
cornet-s,1,807,NaN,dog,knife,32-0-10,0807_eid_dnn_32-0-10_knife_10_n03041632_33739.JPEG
cornet-s,1,808,NaN,dog,knife,32-0-10,0808_eid_dnn_32-0-10_knife_10_n03041632_80317.JPEG
cornet-s,1,809,NaN,dog,knife,32-0-10,0809_eid_dnn_32-0-10_knife_10_n03041632_2184.JPEG
cornet-s,1,810,NaN,dog,knife,32-0-10,0810_eid_dnn_32-0-10_knife_10_n03041632_1607.JPEG
cornet-s,1,811,NaN,dog,keyboard,32-0-10,0811_eid_dnn_32-0-10_keyboard_10_n03085013_23271.JPEG
cornet-s,1,812,NaN,clock,keyboard,32-0-10,0812_eid_dnn_32-0-10_keyboard_10_n03085013_24129.JPEG
cornet-s,1,813,NaN,dog,keyboard,32-0-10,0813_eid_dnn_32-0-10_keyboard_10_n04505470_486.JPEG
cornet-s,1,814,NaN,cat,keyboard,32-0-10,0814_eid_dnn_32-0-10_keyboard_10_n03085013_26556.JPEG
cornet-s,1,815,NaN,dog,keyboard,32-0-10,0815_eid_dnn_32-0-10_keyboard_10_n03085013_4387.JPEG
cornet-s,1,816,NaN,dog,keyboard,32-0-10,0816_eid_dnn_32-0-10_keyboard_10_n04505470_4473.JPEG
cornet-s,1,817,NaN,dog,keyboard,32-0-10,0817_eid_dnn_32-0-10_keyboard_10_n03085013_7317.JPEG
cornet-s,1,818,NaN,cat,keyboard,32-0-10,0818_eid_dnn_32-0-10_keyboard_10_n03085013_688.JPEG
cornet-s,1,819,NaN,dog,keyboard,32-0-10,0819_eid_dnn_32-0-10_keyboard_10_n04505470_1043.JPEG
cornet-s,1,820,NaN,dog,keyboard,32-0-10,0820_eid_dnn_32-0-10_keyboard_10_n03085013_21795.JPEG
cornet-s,1,821,NaN,dog,elephant,32-0-10,0821_eid_dnn_32-0-10_elephant_10_n02504458_1210.JPEG
cornet-s,1,822,NaN,dog,elephant,32-0-10,0822_eid_dnn_32-0-10_elephant_10_n02504013_5164.JPEG
cornet-s,1,823,NaN,bear,elephant,32-0-10,0823_eid_dnn_32-0-10_elephant_10_n02504013_1099.JPEG
cornet-s,1,824,NaN,dog,elephant,32-0-10,0824_eid_dnn_32-0-10_elephant_10_n02504458_5176.JPEG
cornet-s,1,825,NaN,dog,elephant,32-0-10,0825_eid_dnn_32-0-10_elephant_10_n02504458_8823.JPEG
cornet-s,1,826,NaN,dog,elephant,32-0-10,0826_eid_dnn_32-0-10_elephant_10_n02504458_5190.JPEG
cornet-s,1,827,NaN,cat,elephant,32-0-10,0827_eid_dnn_32-0-10_elephant_10_n02504458_8266.JPEG
cornet-s,1,828,NaN,dog,elephant,32-0-10,0828_eid_dnn_32-0-10_elephant_10_n02504458_8084.JPEG
cornet-s,1,829,NaN,dog,elephant,32-0-10,0829_eid_dnn_32-0-10_elephant_10_n02504013_5251.JPEG
cornet-s,1,830,NaN,dog,elephant,32-0-10,0830_eid_dnn_32-0-10_elephant_10_n02504013_9178.JPEG
cornet-s,1,831,NaN,dog,bicycle,32-0-10,0831_eid_dnn_32-0-10_bicycle_10_n03792782_7764.JPEG
cornet-s,1,832,NaN,dog,bicycle,32-0-10,0832_eid_dnn_32-0-10_bicycle_10_n03792782_51004.JPEG
cornet-s,1,833,NaN,dog,bicycle,32-0-10,0833_eid_dnn_32-0-10_bicycle_10_n02835271_3342.JPEG
cornet-s,1,834,NaN,dog,bicycle,32-0-10,0834_eid_dnn_32-0-10_bicycle_10_n02835271_10933.JPEG
cornet-s,1,835,NaN,dog,bicycle,32-0-10,0835_eid_dnn_32-0-10_bicycle_10_n02835271_5113.JPEG
cornet-s,1,836,NaN,dog,bicycle,32-0-10,0836_eid_dnn_32-0-10_bicycle_10_n03792782_10223.JPEG
cornet-s,1,837,NaN,dog,bicycle,32-0-10,0837_eid_dnn_32-0-10_bicycle_10_n03792782_7709.JPEG
cornet-s,1,838,NaN,bird,bicycle,32-0-10,0838_eid_dnn_32-0-10_bicycle_10_n03792782_31116.JPEG
cornet-s,1,839,NaN,dog,bicycle,32-0-10,0839_eid_dnn_32-0-10_bicycle_10_n03792782_3765.JPEG
cornet-s,1,840,NaN,airplane,bicycle,32-0-10,0840_eid_dnn_32-0-10_bicycle_10_n03792782_6716.JPEG
cornet-s,1,841,NaN,bird,airplane,32-0-10,0841_eid_dnn_32-0-10_airplane_10_n02690373_4814.JPEG
cornet-s,1,842,NaN,dog,airplane,32-0-10,0842_eid_dnn_32-0-10_airplane_10_n02690373_3451.JPEG
cornet-s,1,843,NaN,dog,airplane,32-0-10,0843_eid_dnn_32-0-10_airplane_10_n02690373_4335.JPEG
cornet-s,1,844,NaN,bottle,airplane,32-0-10,0844_eid_dnn_32-0-10_airplane_10_n02690373_101.JPEG
cornet-s,1,845,NaN,bird,airplane,32-0-10,0845_eid_dnn_32-0-10_airplane_10_n02690373_945.JPEG
cornet-s,1,846,NaN,cat,airplane,32-0-10,0846_eid_dnn_32-0-10_airplane_10_n02690373_10402.JPEG
cornet-s,1,847,NaN,dog,airplane,32-0-10,0847_eid_dnn_32-0-10_airplane_10_n02690373_6031.JPEG
cornet-s,1,848,NaN,bird,airplane,32-0-10,0848_eid_dnn_32-0-10_airplane_10_n02690373_4964.JPEG
cornet-s,1,849,NaN,dog,airplane,32-0-10,0849_eid_dnn_32-0-10_airplane_10_n02690373_1733.JPEG
cornet-s,1,850,NaN,dog,airplane,32-0-10,0850_eid_dnn_32-0-10_airplane_10_n02690373_4294.JPEG
cornet-s,1,851,NaN,dog,clock,32-0-10,0851_eid_dnn_32-0-10_clock_10_n04548280_6605.JPEG
cornet-s,1,852,NaN,knife,clock,32-0-10,0852_eid_dnn_32-0-10_clock_10_n03196217_2201.JPEG
cornet-s,1,853,NaN,dog,clock,32-0-10,0853_eid_dnn_32-0-10_clock_10_n02708093_3643.JPEG
cornet-s,1,854,NaN,dog,clock,32-0-10,0854_eid_dnn_32-0-10_clock_10_n04548280_9867.JPEG
cornet-s,1,855,NaN,bird,clock,32-0-10,0855_eid_dnn_32-0-10_clock_10_n04548280_467.JPEG
cornet-s,1,856,NaN,cat,clock,32-0-10,0856_eid_dnn_32-0-10_clock_10_n04548280_702.JPEG
cornet-s,1,857,NaN,dog,clock,32-0-10,0857_eid_dnn_32-0-10_clock_10_n02708093_7935.JPEG
cornet-s,1,858,NaN,dog,clock,32-0-10,0858_eid_dnn_32-0-10_clock_10_n02708093_1495.JPEG
cornet-s,1,859,NaN,dog,clock,32-0-10,0859_eid_dnn_32-0-10_clock_10_n04548280_1230.JPEG
cornet-s,1,860,NaN,dog,clock,32-0-10,0860_eid_dnn_32-0-10_clock_10_n03196217_4666.JPEG
cornet-s,1,861,NaN,clock,oven,32-0-10,0861_eid_dnn_32-0-10_oven_10_n04111531_8537.JPEG
cornet-s,1,862,NaN,dog,oven,32-0-10,0862_eid_dnn_32-0-10_oven_10_n04111531_11669.JPEG
cornet-s,1,863,NaN,dog,oven,32-0-10,0863_eid_dnn_32-0-10_oven_10_n04111531_8553.JPEG
cornet-s,1,864,NaN,dog,oven,32-0-10,0864_eid_dnn_32-0-10_oven_10_n04111531_769.JPEG
cornet-s,1,865,NaN,dog,oven,32-0-10,0865_eid_dnn_32-0-10_oven_10_n04111531_5328.JPEG
cornet-s,1,866,NaN,dog,oven,32-0-10,0866_eid_dnn_32-0-10_oven_10_n04111531_5533.JPEG
cornet-s,1,867,NaN,dog,oven,32-0-10,0867_eid_dnn_32-0-10_oven_10_n04111531_22413.JPEG
cornet-s,1,868,NaN,dog,oven,32-0-10,0868_eid_dnn_32-0-10_oven_10_n04111531_22263.JPEG
cornet-s,1,869,NaN,dog,oven,32-0-10,0869_eid_dnn_32-0-10_oven_10_n04111531_7338.JPEG
cornet-s,1,870,NaN,dog,oven,32-0-10,0870_eid_dnn_32-0-10_oven_10_n04111531_15627.JPEG
cornet-s,1,871,NaN,dog,chair,32-0-10,0871_eid_dnn_32-0-10_chair_10_n04099969_8478.JPEG
cornet-s,1,872,NaN,dog,chair,32-0-10,0872_eid_dnn_32-0-10_chair_10_n02791124_1335.JPEG
cornet-s,1,873,NaN,dog,chair,32-0-10,0873_eid_dnn_32-0-10_chair_10_n04099969_15742.JPEG
cornet-s,1,874,NaN,dog,chair,32-0-10,0874_eid_dnn_32-0-10_chair_10_n03376595_2768.JPEG
cornet-s,1,875,NaN,dog,chair,32-0-10,0875_eid_dnn_32-0-10_chair_10_n04429376_848.JPEG
cornet-s,1,876,NaN,dog,chair,32-0-10,0876_eid_dnn_32-0-10_chair_10_n03376595_5608.JPEG
cornet-s,1,877,NaN,dog,chair,32-0-10,0877_eid_dnn_32-0-10_chair_10_n04099969_121.JPEG
cornet-s,1,878,NaN,dog,chair,32-0-10,0878_eid_dnn_32-0-10_chair_10_n04099969_46282.JPEG
cornet-s,1,879,NaN,dog,chair,32-0-10,0879_eid_dnn_32-0-10_chair_10_n02791124_1817.JPEG
cornet-s,1,880,NaN,dog,chair,32-0-10,0880_eid_dnn_32-0-10_chair_10_n04429376_12965.JPEG
cornet-s,1,881,NaN,dog,bear,32-0-10,0881_eid_dnn_32-0-10_bear_10_n02134418_254.JPEG
cornet-s,1,882,NaN,dog,bear,32-0-10,0882_eid_dnn_32-0-10_bear_10_n02132136_9504.JPEG
cornet-s,1,883,NaN,dog,bear,32-0-10,0883_eid_dnn_32-0-10_bear_10_n02132136_8438.JPEG
cornet-s,1,884,NaN,dog,bear,32-0-10,0884_eid_dnn_32-0-10_bear_10_n02133161_15386.JPEG
cornet-s,1,885,NaN,dog,bear,32-0-10,0885_eid_dnn_32-0-10_bear_10_n02134418_583.JPEG
cornet-s,1,886,NaN,dog,bear,32-0-10,0886_eid_dnn_32-0-10_bear_10_n02134084_5100.JPEG
cornet-s,1,887,NaN,dog,bear,32-0-10,0887_eid_dnn_32-0-10_bear_10_n02132136_7154.JPEG
cornet-s,1,888,NaN,dog,bear,32-0-10,0888_eid_dnn_32-0-10_bear_10_n02134084_1400.JPEG
cornet-s,1,889,NaN,dog,bear,32-0-10,0889_eid_dnn_32-0-10_bear_10_n02134084_18611.JPEG
cornet-s,1,890,NaN,cat,bear,32-0-10,0890_eid_dnn_32-0-10_bear_10_n02134418_2666.JPEG
cornet-s,1,891,NaN,dog,boat,32-0-10,0891_eid_dnn_32-0-10_boat_10_n04273569_1020.JPEG
cornet-s,1,892,NaN,dog,boat,32-0-10,0892_eid_dnn_32-0-10_boat_10_n03662601_2663.JPEG
cornet-s,1,893,NaN,dog,boat,32-0-10,0893_eid_dnn_32-0-10_boat_10_n03662601_2631.JPEG
cornet-s,1,894,NaN,dog,boat,32-0-10,0894_eid_dnn_32-0-10_boat_10_n04612504_550.JPEG
cornet-s,1,895,NaN,dog,boat,32-0-10,0895_eid_dnn_32-0-10_boat_10_n03662601_28399.JPEG
cornet-s,1,896,NaN,dog,boat,32-0-10,0896_eid_dnn_32-0-10_boat_10_n04273569_15248.JPEG
cornet-s,1,897,NaN,cat,boat,32-0-10,0897_eid_dnn_32-0-10_boat_10_n03344393_8030.JPEG
cornet-s,1,898,NaN,dog,boat,32-0-10,0898_eid_dnn_32-0-10_boat_10_n02951358_33850.JPEG
cornet-s,1,899,NaN,cat,boat,32-0-10,0899_eid_dnn_32-0-10_boat_10_n03662601_6849.JPEG
cornet-s,1,900,NaN,dog,boat,32-0-10,0900_eid_dnn_32-0-10_boat_10_n02951358_527.JPEG
cornet-s,1,901,NaN,dog,cat,32-0-10,0901_eid_dnn_32-0-10_cat_10_n02123394_535.JPEG
cornet-s,1,902,NaN,dog,cat,32-0-10,0902_eid_dnn_32-0-10_cat_10_n02123394_4612.JPEG
cornet-s,1,903,NaN,dog,cat,32-0-10,0903_eid_dnn_32-0-10_cat_10_n02123597_1529.JPEG
cornet-s,1,904,NaN,dog,cat,32-0-10,0904_eid_dnn_32-0-10_cat_10_n02123159_4362.JPEG
cornet-s,1,905,NaN,dog,cat,32-0-10,0905_eid_dnn_32-0-10_cat_10_n02123045_16157.JPEG
cornet-s,1,906,NaN,dog,cat,32-0-10,0906_eid_dnn_32-0-10_cat_10_n02125311_2576.JPEG
cornet-s,1,907,NaN,dog,cat,32-0-10,0907_eid_dnn_32-0-10_cat_10_n02123045_9364.JPEG
cornet-s,1,908,NaN,dog,cat,32-0-10,0908_eid_dnn_32-0-10_cat_10_n02125311_13152.JPEG
cornet-s,1,909,NaN,dog,cat,32-0-10,0909_eid_dnn_32-0-10_cat_10_n02123045_12632.JPEG
cornet-s,1,910,NaN,cat,cat,32-0-10,0910_eid_dnn_32-0-10_cat_10_n02123597_13278.JPEG
cornet-s,1,911,NaN,dog,bottle,32-0-10,0911_eid_dnn_32-0-10_bottle_10_n02823428_5346.JPEG
cornet-s,1,912,NaN,dog,bottle,32-0-10,0912_eid_dnn_32-0-10_bottle_10_n04591713_14895.JPEG
cornet-s,1,913,NaN,dog,bottle,32-0-10,0913_eid_dnn_32-0-10_bottle_10_n03983396_2763.JPEG
cornet-s,1,914,NaN,dog,bottle,32-0-10,0914_eid_dnn_32-0-10_bottle_10_n03937543_1398.JPEG
cornet-s,1,915,NaN,dog,bottle,32-0-10,0915_eid_dnn_32-0-10_bottle_10_n04579145_3924.JPEG
cornet-s,1,916,NaN,knife,bottle,32-0-10,0916_eid_dnn_32-0-10_bottle_10_n04579145_5289.JPEG
cornet-s,1,917,NaN,dog,bottle,32-0-10,0917_eid_dnn_32-0-10_bottle_10_n03937543_8262.JPEG
cornet-s,1,918,NaN,dog,bottle,32-0-10,0918_eid_dnn_32-0-10_bottle_10_n04560804_16177.JPEG
cornet-s,1,919,NaN,dog,bottle,32-0-10,0919_eid_dnn_32-0-10_bottle_10_n04557648_1026.JPEG
cornet-s,1,920,NaN,dog,bottle,32-0-10,0920_eid_dnn_32-0-10_bottle_10_n02823428_11637.JPEG
cornet-s,1,921,NaN,dog,truck,32-0-10,0921_eid_dnn_32-0-10_truck_10_n03417042_4407.JPEG
cornet-s,1,922,NaN,dog,truck,32-0-10,0922_eid_dnn_32-0-10_truck_10_n03417042_3165.JPEG
cornet-s,1,923,NaN,dog,truck,32-0-10,0923_eid_dnn_32-0-10_truck_10_n03417042_5307.JPEG
cornet-s,1,924,NaN,dog,truck,32-0-10,0924_eid_dnn_32-0-10_truck_10_n03417042_8241.JPEG
cornet-s,1,925,NaN,dog,truck,32-0-10,0925_eid_dnn_32-0-10_truck_10_n03796401_28979.JPEG
cornet-s,1,926,NaN,dog,truck,32-0-10,0926_eid_dnn_32-0-10_truck_10_n04467665_34253.JPEG
cornet-s,1,927,NaN,dog,truck,32-0-10,0927_eid_dnn_32-0-10_truck_10_n03417042_27093.JPEG
cornet-s,1,928,NaN,dog,truck,32-0-10,0928_eid_dnn_32-0-10_truck_10_n03417042_10876.JPEG
cornet-s,1,929,NaN,dog,truck,32-0-10,0929_eid_dnn_32-0-10_truck_10_n04467665_43978.JPEG
cornet-s,1,930,NaN,dog,truck,32-0-10,0930_eid_dnn_32-0-10_truck_10_n04467665_66016.JPEG
cornet-s,1,931,NaN,dog,car,32-0-10,0931_eid_dnn_32-0-10_car_10_n02814533_80049.JPEG
cornet-s,1,932,NaN,dog,car,32-0-10,0932_eid_dnn_32-0-10_car_10_n02814533_89236.JPEG
cornet-s,1,933,NaN,dog,car,32-0-10,0933_eid_dnn_32-0-10_car_10_n02814533_7468.JPEG
cornet-s,1,934,NaN,dog,car,32-0-10,0934_eid_dnn_32-0-10_car_10_n03100240_7206.JPEG
cornet-s,1,935,NaN,dog,car,32-0-10,0935_eid_dnn_32-0-10_car_10_n04285008_8696.JPEG
cornet-s,1,936,NaN,dog,car,32-0-10,0936_eid_dnn_32-0-10_car_10_n02814533_38205.JPEG
cornet-s,1,937,NaN,dog,car,32-0-10,0937_eid_dnn_32-0-10_car_10_n03100240_6853.JPEG
cornet-s,1,938,NaN,dog,car,32-0-10,0938_eid_dnn_32-0-10_car_10_n03100240_6029.JPEG
cornet-s,1,939,NaN,dog,car,32-0-10,0939_eid_dnn_32-0-10_car_10_n04285008_13418.JPEG
cornet-s,1,940,NaN,dog,car,32-0-10,0940_eid_dnn_32-0-10_car_10_n02814533_4059.JPEG
cornet-s,1,941,NaN,dog,bird,32-0-10,0941_eid_dnn_32-0-10_bird_10_n01797886_5880.JPEG
cornet-s,1,942,NaN,dog,bird,32-0-10,0942_eid_dnn_32-0-10_bird_10_n02009229_15970.JPEG
cornet-s,1,943,NaN,dog,bird,32-0-10,0943_eid_dnn_32-0-10_bird_10_n01560419_9339.JPEG
cornet-s,1,944,NaN,dog,bird,32-0-10,0944_eid_dnn_32-0-10_bird_10_n01614925_21963.JPEG
cornet-s,1,945,NaN,clock,bird,32-0-10,0945_eid_dnn_32-0-10_bird_10_n01560419_6172.JPEG
cornet-s,1,946,NaN,dog,bird,32-0-10,0946_eid_dnn_32-0-10_bird_10_n02028035_2342.JPEG
cornet-s,1,947,NaN,dog,bird,32-0-10,0947_eid_dnn_32-0-10_bird_10_n02037110_4043.JPEG
cornet-s,1,948,NaN,cat,bird,32-0-10,0948_eid_dnn_32-0-10_bird_10_n01833805_3776.JPEG
cornet-s,1,949,NaN,dog,bird,32-0-10,0949_eid_dnn_32-0-10_bird_10_n01828970_6666.JPEG
cornet-s,1,950,NaN,cat,bird,32-0-10,0950_eid_dnn_32-0-10_bird_10_n02027492_7617.JPEG
cornet-s,1,951,NaN,dog,dog,32-0-10,0951_eid_dnn_32-0-10_dog_10_n02094258_5261.JPEG
cornet-s,1,952,NaN,dog,dog,32-0-10,0952_eid_dnn_32-0-10_dog_10_n02108915_10340.JPEG
cornet-s,1,953,NaN,dog,dog,32-0-10,0953_eid_dnn_32-0-10_dog_10_n02105162_3572.JPEG
cornet-s,1,954,NaN,dog,dog,32-0-10,0954_eid_dnn_32-0-10_dog_10_n02102973_8206.JPEG
cornet-s,1,955,NaN,dog,dog,32-0-10,0955_eid_dnn_32-0-10_dog_10_n02107142_61191.JPEG
cornet-s,1,956,NaN,dog,dog,32-0-10,0956_eid_dnn_32-0-10_dog_10_n02097047_1176.JPEG
cornet-s,1,957,NaN,dog,dog,32-0-10,0957_eid_dnn_32-0-10_dog_10_n02111129_1881.JPEG
cornet-s,1,958,NaN,dog,dog,32-0-10,0958_eid_dnn_32-0-10_dog_10_n02097130_5070.JPEG
cornet-s,1,959,NaN,dog,dog,32-0-10,0959_eid_dnn_32-0-10_dog_10_n02089867_6306.JPEG
cornet-s,1,960,NaN,cat,dog,32-0-10,0960_eid_dnn_32-0-10_dog_10_n02104029_4813.JPEG
cornet-s,1,961,NaN,dog,knife,64-0-10,0961_eid_dnn_64-0-10_knife_10_n03041632_45270.JPEG
cornet-s,1,962,NaN,clock,knife,64-0-10,0962_eid_dnn_64-0-10_knife_10_n03041632_56454.JPEG
cornet-s,1,963,NaN,dog,knife,64-0-10,0963_eid_dnn_64-0-10_knife_10_n03041632_27022.JPEG
cornet-s,1,964,NaN,dog,knife,64-0-10,0964_eid_dnn_64-0-10_knife_10_n03041632_22570.JPEG
cornet-s,1,965,NaN,cat,knife,64-0-10,0965_eid_dnn_64-0-10_knife_10_n03041632_11741.JPEG
cornet-s,1,966,NaN,dog,knife,64-0-10,0966_eid_dnn_64-0-10_knife_10_n03041632_6557.JPEG
cornet-s,1,967,NaN,dog,knife,64-0-10,0967_eid_dnn_64-0-10_knife_10_n03041632_25772.JPEG
cornet-s,1,968,NaN,dog,knife,64-0-10,0968_eid_dnn_64-0-10_knife_10_n03041632_85416.JPEG
cornet-s,1,969,NaN,dog,knife,64-0-10,0969_eid_dnn_64-0-10_knife_10_n03041632_86338.JPEG
cornet-s,1,970,NaN,dog,knife,64-0-10,0970_eid_dnn_64-0-10_knife_10_n03041632_379.JPEG
cornet-s,1,971,NaN,cat,keyboard,64-0-10,0971_eid_dnn_64-0-10_keyboard_10_n04505470_4827.JPEG
cornet-s,1,972,NaN,bear,keyboard,64-0-10,0972_eid_dnn_64-0-10_keyboard_10_n04505470_5038.JPEG
cornet-s,1,973,NaN,dog,keyboard,64-0-10,0973_eid_dnn_64-0-10_keyboard_10_n04505470_5150.JPEG
cornet-s,1,974,NaN,bird,keyboard,64-0-10,0974_eid_dnn_64-0-10_keyboard_10_n04505470_4625.JPEG
cornet-s,1,975,NaN,dog,keyboard,64-0-10,0975_eid_dnn_64-0-10_keyboard_10_n03085013_18673.JPEG
cornet-s,1,976,NaN,dog,keyboard,64-0-10,0976_eid_dnn_64-0-10_keyboard_10_n03085013_19645.JPEG
cornet-s,1,977,NaN,dog,keyboard,64-0-10,0977_eid_dnn_64-0-10_keyboard_10_n04505470_4400.JPEG
cornet-s,1,978,NaN,dog,keyboard,64-0-10,0978_eid_dnn_64-0-10_keyboard_10_n03085013_23277.JPEG
cornet-s,1,979,NaN,dog,keyboard,64-0-10,0979_eid_dnn_64-0-10_keyboard_10_n04505470_10722.JPEG
cornet-s,1,980,NaN,dog,keyboard,64-0-10,0980_eid_dnn_64-0-10_keyboard_10_n03085013_5440.JPEG
cornet-s,1,981,NaN,bird,elephant,64-0-10,0981_eid_dnn_64-0-10_elephant_10_n02504458_4207.JPEG
cornet-s,1,982,NaN,clock,elephant,64-0-10,0982_eid_dnn_64-0-10_elephant_10_n02504013_2358.JPEG
cornet-s,1,983,NaN,dog,elephant,64-0-10,0983_eid_dnn_64-0-10_elephant_10_n02504458_3521.JPEG
cornet-s,1,984,NaN,dog,elephant,64-0-10,0984_eid_dnn_64-0-10_elephant_10_n02504013_354.JPEG
cornet-s,1,985,NaN,dog,elephant,64-0-10,0985_eid_dnn_64-0-10_elephant_10_n02504458_4244.JPEG
cornet-s,1,986,NaN,dog,elephant,64-0-10,0986_eid_dnn_64-0-10_elephant_10_n02504013_19753.JPEG
cornet-s,1,987,NaN,dog,elephant,64-0-10,0987_eid_dnn_64-0-10_elephant_10_n02504013_8391.JPEG
cornet-s,1,988,NaN,dog,elephant,64-0-10,0988_eid_dnn_64-0-10_elephant_10_n02504458_8526.JPEG
cornet-s,1,989,NaN,dog,elephant,64-0-10,0989_eid_dnn_64-0-10_elephant_10_n02504013_27.JPEG
cornet-s,1,990,NaN,dog,elephant,64-0-10,0990_eid_dnn_64-0-10_elephant_10_n02504013_3500.JPEG
cornet-s,1,991,NaN,dog,bicycle,64-0-10,0991_eid_dnn_64-0-10_bicycle_10_n02835271_21395.JPEG
cornet-s,1,992,NaN,dog,bicycle,64-0-10,0992_eid_dnn_64-0-10_bicycle_10_n02835271_13209.JPEG
cornet-s,1,993,NaN,dog,bicycle,64-0-10,0993_eid_dnn_64-0-10_bicycle_10_n03792782_14966.JPEG
cornet-s,1,994,NaN,dog,bicycle,64-0-10,0994_eid_dnn_64-0-10_bicycle_10_n03792782_12815.JPEG
cornet-s,1,995,NaN,dog,bicycle,64-0-10,0995_eid_dnn_64-0-10_bicycle_10_n02835271_3329.JPEG
cornet-s,1,996,NaN,clock,bicycle,64-0-10,0996_eid_dnn_64-0-10_bicycle_10_n02835271_6278.JPEG
cornet-s,1,997,NaN,chair,bicycle,64-0-10,0997_eid_dnn_64-0-10_bicycle_10_n02835271_13404.JPEG
cornet-s,1,998,NaN,clock,bicycle,64-0-10,0998_eid_dnn_64-0-10_bicycle_10_n03792782_67327.JPEG
cornet-s,1,999,NaN,chair,bicycle,64-0-10,0999_eid_dnn_64-0-10_bicycle_10_n02835271_1453.JPEG
cornet-s,1,1000,NaN,dog,bicycle,64-0-10,1000_eid_dnn_64-0-10_bicycle_10_n02835271_9286.JPEG
cornet-s,1,1001,NaN,dog,airplane,64-0-10,1001_eid_dnn_64-0-10_airplane_10_n02690373_1891.JPEG
cornet-s,1,1002,NaN,bottle,airplane,64-0-10,1002_eid_dnn_64-0-10_airplane_10_n02690373_9421.JPEG
cornet-s,1,1003,NaN,clock,airplane,64-0-10,1003_eid_dnn_64-0-10_airplane_10_n02690373_2730.JPEG
cornet-s,1,1004,NaN,bird,airplane,64-0-10,1004_eid_dnn_64-0-10_airplane_10_n02690373_10079.JPEG
cornet-s,1,1005,NaN,dog,airplane,64-0-10,1005_eid_dnn_64-0-10_airplane_10_n02690373_1235.JPEG
cornet-s,1,1006,NaN,clock,airplane,64-0-10,1006_eid_dnn_64-0-10_airplane_10_n02690373_9181.JPEG
cornet-s,1,1007,NaN,bottle,airplane,64-0-10,1007_eid_dnn_64-0-10_airplane_10_n02690373_10423.JPEG
cornet-s,1,1008,NaN,clock,airplane,64-0-10,1008_eid_dnn_64-0-10_airplane_10_n02690373_8560.JPEG
cornet-s,1,1009,NaN,dog,airplane,64-0-10,1009_eid_dnn_64-0-10_airplane_10_n02690373_7387.JPEG
cornet-s,1,1010,NaN,elephant,airplane,64-0-10,1010_eid_dnn_64-0-10_airplane_10_n02690373_6104.JPEG
cornet-s,1,1011,NaN,bird,clock,64-0-10,1011_eid_dnn_64-0-10_clock_10_n04548280_757.JPEG
cornet-s,1,1012,NaN,bird,clock,64-0-10,1012_eid_dnn_64-0-10_clock_10_n03196217_3283.JPEG
cornet-s,1,1013,NaN,dog,clock,64-0-10,1013_eid_dnn_64-0-10_clock_10_n04548280_199.JPEG
cornet-s,1,1014,NaN,dog,clock,64-0-10,1014_eid_dnn_64-0-10_clock_10_n03196217_5243.JPEG
cornet-s,1,1015,NaN,clock,clock,64-0-10,1015_eid_dnn_64-0-10_clock_10_n03196217_8221.JPEG
cornet-s,1,1016,NaN,dog,clock,64-0-10,1016_eid_dnn_64-0-10_clock_10_n03196217_55.JPEG
cornet-s,1,1017,NaN,dog,clock,64-0-10,1017_eid_dnn_64-0-10_clock_10_n02708093_2670.JPEG
cornet-s,1,1018,NaN,bear,clock,64-0-10,1018_eid_dnn_64-0-10_clock_10_n04548280_399.JPEG
cornet-s,1,1019,NaN,dog,clock,64-0-10,1019_eid_dnn_64-0-10_clock_10_n02708093_3399.JPEG
cornet-s,1,1020,NaN,airplane,clock,64-0-10,1020_eid_dnn_64-0-10_clock_10_n04548280_8024.JPEG
cornet-s,1,1021,NaN,dog,oven,64-0-10,1021_eid_dnn_64-0-10_oven_10_n04111531_5304.JPEG
cornet-s,1,1022,NaN,dog,oven,64-0-10,1022_eid_dnn_64-0-10_oven_10_n04111531_13018.JPEG
cornet-s,1,1023,NaN,elephant,oven,64-0-10,1023_eid_dnn_64-0-10_oven_10_n04111531_1815.JPEG
cornet-s,1,1024,NaN,dog,oven,64-0-10,1024_eid_dnn_64-0-10_oven_10_n04111531_845.JPEG
cornet-s,1,1025,NaN,dog,oven,64-0-10,1025_eid_dnn_64-0-10_oven_10_n04111531_11221.JPEG
cornet-s,1,1026,NaN,dog,oven,64-0-10,1026_eid_dnn_64-0-10_oven_10_n04111531_17507.JPEG
cornet-s,1,1027,NaN,dog,oven,64-0-10,1027_eid_dnn_64-0-10_oven_10_n04111531_5038.JPEG
cornet-s,1,1028,NaN,cat,oven,64-0-10,1028_eid_dnn_64-0-10_oven_10_n04111531_2456.JPEG
cornet-s,1,1029,NaN,dog,oven,64-0-10,1029_eid_dnn_64-0-10_oven_10_n04111531_24065.JPEG
cornet-s,1,1030,NaN,dog,oven,64-0-10,1030_eid_dnn_64-0-10_oven_10_n04111531_9210.JPEG
cornet-s,1,1031,NaN,dog,chair,64-0-10,1031_eid_dnn_64-0-10_chair_10_n02791124_1810.JPEG
cornet-s,1,1032,NaN,dog,chair,64-0-10,1032_eid_dnn_64-0-10_chair_10_n04429376_27777.JPEG
cornet-s,1,1033,NaN,cat,chair,64-0-10,1033_eid_dnn_64-0-10_chair_10_n03376595_2398.JPEG
cornet-s,1,1034,NaN,dog,chair,64-0-10,1034_eid_dnn_64-0-10_chair_10_n02791124_16352.JPEG
cornet-s,1,1035,NaN,dog,chair,64-0-10,1035_eid_dnn_64-0-10_chair_10_n04429376_5337.JPEG
cornet-s,1,1036,NaN,dog,chair,64-0-10,1036_eid_dnn_64-0-10_chair_10_n03376595_8633.JPEG
cornet-s,1,1037,NaN,dog,chair,64-0-10,1037_eid_dnn_64-0-10_chair_10_n04429376_10421.JPEG
cornet-s,1,1038,NaN,chair,chair,64-0-10,1038_eid_dnn_64-0-10_chair_10_n03376595_9025.JPEG
cornet-s,1,1039,NaN,cat,chair,64-0-10,1039_eid_dnn_64-0-10_chair_10_n03376595_6158.JPEG
cornet-s,1,1040,NaN,dog,chair,64-0-10,1040_eid_dnn_64-0-10_chair_10_n03376595_2743.JPEG
cornet-s,1,1041,NaN,bird,bear,64-0-10,1041_eid_dnn_64-0-10_bear_10_n02134418_2010.JPEG
cornet-s,1,1042,NaN,dog,bear,64-0-10,1042_eid_dnn_64-0-10_bear_10_n02134084_24354.JPEG
cornet-s,1,1043,NaN,dog,bear,64-0-10,1043_eid_dnn_64-0-10_bear_10_n02134084_4122.JPEG
cornet-s,1,1044,NaN,dog,bear,64-0-10,1044_eid_dnn_64-0-10_bear_10_n02133161_820.JPEG
cornet-s,1,1045,NaN,dog,bear,64-0-10,1045_eid_dnn_64-0-10_bear_10_n02132136_9666.JPEG
cornet-s,1,1046,NaN,dog,bear,64-0-10,1046_eid_dnn_64-0-10_bear_10_n02134084_11247.JPEG
cornet-s,1,1047,NaN,dog,bear,64-0-10,1047_eid_dnn_64-0-10_bear_10_n02133161_1041.JPEG
cornet-s,1,1048,NaN,dog,bear,64-0-10,1048_eid_dnn_64-0-10_bear_10_n02133161_1953.JPEG
cornet-s,1,1049,NaN,dog,bear,64-0-10,1049_eid_dnn_64-0-10_bear_10_n02132136_3534.JPEG
cornet-s,1,1050,NaN,dog,bear,64-0-10,1050_eid_dnn_64-0-10_bear_10_n02132136_8204.JPEG
cornet-s,1,1051,NaN,dog,boat,64-0-10,1051_eid_dnn_64-0-10_boat_10_n04273569_7217.JPEG
cornet-s,1,1052,NaN,bird,boat,64-0-10,1052_eid_dnn_64-0-10_boat_10_n03344393_2003.JPEG
cornet-s,1,1053,NaN,dog,boat,64-0-10,1053_eid_dnn_64-0-10_boat_10_n02951358_582.JPEG
cornet-s,1,1054,NaN,dog,boat,64-0-10,1054_eid_dnn_64-0-10_boat_10_n02951358_12023.JPEG
cornet-s,1,1055,NaN,dog,boat,64-0-10,1055_eid_dnn_64-0-10_boat_10_n03344393_9777.JPEG
cornet-s,1,1056,NaN,dog,boat,64-0-10,1056_eid_dnn_64-0-10_boat_10_n03662601_10526.JPEG
cornet-s,1,1057,NaN,cat,boat,64-0-10,1057_eid_dnn_64-0-10_boat_10_n02951358_11412.JPEG
cornet-s,1,1058,NaN,dog,boat,64-0-10,1058_eid_dnn_64-0-10_boat_10_n02951358_13060.JPEG
cornet-s,1,1059,NaN,dog,boat,64-0-10,1059_eid_dnn_64-0-10_boat_10_n03662601_7885.JPEG
cornet-s,1,1060,NaN,dog,boat,64-0-10,1060_eid_dnn_64-0-10_boat_10_n03662601_29472.JPEG
cornet-s,1,1061,NaN,dog,cat,64-0-10,1061_eid_dnn_64-0-10_cat_10_n02123159_5749.JPEG
cornet-s,1,1062,NaN,dog,cat,64-0-10,1062_eid_dnn_64-0-10_cat_10_n02123045_1438.JPEG
cornet-s,1,1063,NaN,dog,cat,64-0-10,1063_eid_dnn_64-0-10_cat_10_n02123159_2666.JPEG
cornet-s,1,1064,NaN,dog,cat,64-0-10,1064_eid_dnn_64-0-10_cat_10_n02123159_1746.JPEG
cornet-s,1,1065,NaN,dog,cat,64-0-10,1065_eid_dnn_64-0-10_cat_10_n02123159_3783.JPEG
cornet-s,1,1066,NaN,dog,cat,64-0-10,1066_eid_dnn_64-0-10_cat_10_n02125311_9364.JPEG
cornet-s,1,1067,NaN,dog,cat,64-0-10,1067_eid_dnn_64-0-10_cat_10_n02124075_1426.JPEG
cornet-s,1,1068,NaN,dog,cat,64-0-10,1068_eid_dnn_64-0-10_cat_10_n02125311_51999.JPEG
cornet-s,1,1069,NaN,dog,cat,64-0-10,1069_eid_dnn_64-0-10_cat_10_n02125311_4261.JPEG
cornet-s,1,1070,NaN,dog,cat,64-0-10,1070_eid_dnn_64-0-10_cat_10_n02125311_20146.JPEG
cornet-s,1,1071,NaN,dog,bottle,64-0-10,1071_eid_dnn_64-0-10_bottle_10_n04560804_15572.JPEG
cornet-s,1,1072,NaN,dog,bottle,64-0-10,1072_eid_dnn_64-0-10_bottle_10_n02823428_11564.JPEG
cornet-s,1,1073,NaN,dog,bottle,64-0-10,1073_eid_dnn_64-0-10_bottle_10_n02823428_5265.JPEG
cornet-s,1,1074,NaN,clock,bottle,64-0-10,1074_eid_dnn_64-0-10_bottle_10_n02823428_6328.JPEG
cornet-s,1,1075,NaN,dog,bottle,64-0-10,1075_eid_dnn_64-0-10_bottle_10_n03937543_3651.JPEG
cornet-s,1,1076,NaN,elephant,bottle,64-0-10,1076_eid_dnn_64-0-10_bottle_10_n03983396_7082.JPEG
cornet-s,1,1077,NaN,dog,bottle,64-0-10,1077_eid_dnn_64-0-10_bottle_10_n04560804_11004.JPEG
cornet-s,1,1078,NaN,dog,bottle,64-0-10,1078_eid_dnn_64-0-10_bottle_10_n04591713_6823.JPEG
cornet-s,1,1079,NaN,dog,bottle,64-0-10,1079_eid_dnn_64-0-10_bottle_10_n04557648_11973.JPEG
cornet-s,1,1080,NaN,dog,bottle,64-0-10,1080_eid_dnn_64-0-10_bottle_10_n03937543_11088.JPEG
cornet-s,1,1081,NaN,dog,truck,64-0-10,1081_eid_dnn_64-0-10_truck_10_n03417042_8121.JPEG
cornet-s,1,1082,NaN,dog,truck,64-0-10,1082_eid_dnn_64-0-10_truck_10_n03796401_26894.JPEG
cornet-s,1,1083,NaN,dog,truck,64-0-10,1083_eid_dnn_64-0-10_truck_10_n04467665_7184.JPEG
cornet-s,1,1084,NaN,dog,truck,64-0-10,1084_eid_dnn_64-0-10_truck_10_n03796401_4181.JPEG
cornet-s,1,1085,NaN,dog,truck,64-0-10,1085_eid_dnn_64-0-10_truck_10_n03796401_211.JPEG
cornet-s,1,1086,NaN,dog,truck,64-0-10,1086_eid_dnn_64-0-10_truck_10_n03417042_1718.JPEG
cornet-s,1,1087,NaN,dog,truck,64-0-10,1087_eid_dnn_64-0-10_truck_10_n03417042_1875.JPEG
cornet-s,1,1088,NaN,dog,truck,64-0-10,1088_eid_dnn_64-0-10_truck_10_n03417042_22709.JPEG
cornet-s,1,1089,NaN,dog,truck,64-0-10,1089_eid_dnn_64-0-10_truck_10_n03417042_23149.JPEG
cornet-s,1,1090,NaN,clock,truck,64-0-10,1090_eid_dnn_64-0-10_truck_10_n04467665_1966.JPEG
cornet-s,1,1091,NaN,dog,car,64-0-10,1091_eid_dnn_64-0-10_car_10_n03100240_7333.JPEG
cornet-s,1,1092,NaN,dog,car,64-0-10,1092_eid_dnn_64-0-10_car_10_n04285008_9859.JPEG
cornet-s,1,1093,NaN,dog,car,64-0-10,1093_eid_dnn_64-0-10_car_10_n02814533_94804.JPEG
cornet-s,1,1094,NaN,dog,car,64-0-10,1094_eid_dnn_64-0-10_car_10_n03100240_23480.JPEG
cornet-s,1,1095,NaN,dog,car,64-0-10,1095_eid_dnn_64-0-10_car_10_n03100240_12968.JPEG
cornet-s,1,1096,NaN,dog,car,64-0-10,1096_eid_dnn_64-0-10_car_10_n03100240_4633.JPEG
cornet-s,1,1097,NaN,dog,car,64-0-10,1097_eid_dnn_64-0-10_car_10_n03100240_15620.JPEG
cornet-s,1,1098,NaN,dog,car,64-0-10,1098_eid_dnn_64-0-10_car_10_n04285008_5032.JPEG
cornet-s,1,1099,NaN,dog,car,64-0-10,1099_eid_dnn_64-0-10_car_10_n03100240_12605.JPEG
cornet-s,1,1100,NaN,dog,car,64-0-10,1100_eid_dnn_64-0-10_car_10_n03100240_5968.JPEG
cornet-s,1,1101,NaN,dog,bird,64-0-10,1101_eid_dnn_64-0-10_bird_10_n02027492_1664.JPEG
cornet-s,1,1102,NaN,dog,bird,64-0-10,1102_eid_dnn_64-0-10_bird_10_n01558993_12695.JPEG
cornet-s,1,1103,NaN,dog,bird,64-0-10,1103_eid_dnn_64-0-10_bird_10_n01817953_3308.JPEG
cornet-s,1,1104,NaN,dog,bird,64-0-10,1104_eid_dnn_64-0-10_bird_10_n01560419_4572.JPEG
cornet-s,1,1105,NaN,cat,bird,64-0-10,1105_eid_dnn_64-0-10_bird_10_n02009229_10822.JPEG
cornet-s,1,1106,NaN,dog,bird,64-0-10,1106_eid_dnn_64-0-10_bird_10_n01622779_684.JPEG
cornet-s,1,1107,NaN,clock,bird,64-0-10,1107_eid_dnn_64-0-10_bird_10_n02056570_1202.JPEG
cornet-s,1,1108,NaN,dog,bird,64-0-10,1108_eid_dnn_64-0-10_bird_10_n01817953_6775.JPEG
cornet-s,1,1109,NaN,dog,bird,64-0-10,1109_eid_dnn_64-0-10_bird_10_n02002556_24456.JPEG
cornet-s,1,1110,NaN,knife,bird,64-0-10,1110_eid_dnn_64-0-10_bird_10_n01798484_13340.JPEG
cornet-s,1,1111,NaN,cat,dog,64-0-10,1111_eid_dnn_64-0-10_dog_10_n02104029_913.JPEG
cornet-s,1,1112,NaN,dog,dog,64-0-10,1112_eid_dnn_64-0-10_dog_10_n02099849_169.JPEG
cornet-s,1,1113,NaN,dog,dog,64-0-10,1113_eid_dnn_64-0-10_dog_10_n02107574_3843.JPEG
cornet-s,1,1114,NaN,dog,dog,64-0-10,1114_eid_dnn_64-0-10_dog_10_n02089867_758.JPEG
cornet-s,1,1115,NaN,clock,dog,64-0-10,1115_eid_dnn_64-0-10_dog_10_n02110063_14969.JPEG
cornet-s,1,1116,NaN,dog,dog,64-0-10,1116_eid_dnn_64-0-10_dog_10_n02093428_16083.JPEG
cornet-s,1,1117,NaN,dog,dog,64-0-10,1117_eid_dnn_64-0-10_dog_10_n02108551_527.JPEG
cornet-s,1,1118,NaN,dog,dog,64-0-10,1118_eid_dnn_64-0-10_dog_10_n02101006_3848.JPEG
cornet-s,1,1119,NaN,dog,dog,64-0-10,1119_eid_dnn_64-0-10_dog_10_n02104029_5150.JPEG
cornet-s,1,1120,NaN,elephant,dog,64-0-10,1120_eid_dnn_64-0-10_dog_10_n02111129_143.JPEG
cornet-s,1,1121,NaN,dog,knife,128-0-10,1121_eid_dnn_128-0-10_knife_10_n03041632_93026.JPEG
cornet-s,1,1122,NaN,chair,knife,128-0-10,1122_eid_dnn_128-0-10_knife_10_n03041632_38540.JPEG
cornet-s,1,1123,NaN,elephant,knife,128-0-10,1123_eid_dnn_128-0-10_knife_10_n03041632_9963.JPEG
cornet-s,1,1124,NaN,dog,knife,128-0-10,1124_eid_dnn_128-0-10_knife_10_n03041632_5911.JPEG
cornet-s,1,1125,NaN,cat,knife,128-0-10,1125_eid_dnn_128-0-10_knife_10_n03041632_84240.JPEG
cornet-s,1,1126,NaN,cat,knife,128-0-10,1126_eid_dnn_128-0-10_knife_10_n03041632_40508.JPEG
cornet-s,1,1127,NaN,dog,knife,128-0-10,1127_eid_dnn_128-0-10_knife_10_n03041632_5102.JPEG
cornet-s,1,1128,NaN,cat,knife,128-0-10,1128_eid_dnn_128-0-10_knife_10_n03041632_20413.JPEG
cornet-s,1,1129,NaN,dog,knife,128-0-10,1129_eid_dnn_128-0-10_knife_10_n03041632_29858.JPEG
cornet-s,1,1130,NaN,clock,knife,128-0-10,1130_eid_dnn_128-0-10_knife_10_n03041632_11797.JPEG
cornet-s,1,1131,NaN,elephant,keyboard,128-0-10,1131_eid_dnn_128-0-10_keyboard_10_n03085013_9184.JPEG
cornet-s,1,1132,NaN,cat,keyboard,128-0-10,1132_eid_dnn_128-0-10_keyboard_10_n04505470_5144.JPEG
cornet-s,1,1133,NaN,dog,keyboard,128-0-10,1133_eid_dnn_128-0-10_keyboard_10_n03085013_23100.JPEG
cornet-s,1,1134,NaN,cat,keyboard,128-0-10,1134_eid_dnn_128-0-10_keyboard_10_n03085013_31364.JPEG
cornet-s,1,1135,NaN,cat,keyboard,128-0-10,1135_eid_dnn_128-0-10_keyboard_10_n04505470_6623.JPEG
cornet-s,1,1136,NaN,dog,keyboard,128-0-10,1136_eid_dnn_128-0-10_keyboard_10_n03085013_24442.JPEG
cornet-s,1,1137,NaN,dog,keyboard,128-0-10,1137_eid_dnn_128-0-10_keyboard_10_n04505470_5149.JPEG
cornet-s,1,1138,NaN,dog,keyboard,128-0-10,1138_eid_dnn_128-0-10_keyboard_10_n04505470_284.JPEG
cornet-s,1,1139,NaN,bear,keyboard,128-0-10,1139_eid_dnn_128-0-10_keyboard_10_n03085013_22960.JPEG
cornet-s,1,1140,NaN,dog,keyboard,128-0-10,1140_eid_dnn_128-0-10_keyboard_10_n03085013_24056.JPEG
