subj,session,trial,rt,object_response,category,condition,imagename
cornet-s,5,1,NaN,knife,knife,0,4481_ps_dnn_0_knife_10_n03041632_18141.png
cornet-s,5,2,NaN,knife,knife,0,4482_ps_dnn_0_knife_10_n03041632_126.png
cornet-s,5,3,NaN,knife,knife,0,4483_ps_dnn_0_knife_10_n03041632_51581.png
cornet-s,5,4,NaN,knife,knife,0,4484_ps_dnn_0_knife_10_n03041632_18236.png
cornet-s,5,5,NaN,knife,knife,0,4485_ps_dnn_0_knife_10_n03041632_42472.png
cornet-s,5,6,NaN,knife,knife,0,4486_ps_dnn_0_knife_10_n03041632_40887.png
cornet-s,5,7,NaN,knife,knife,0,4487_ps_dnn_0_knife_10_n03041632_6557.png
cornet-s,5,8,NaN,knife,knife,0,4488_ps_dnn_0_knife_10_n03041632_27879.png
cornet-s,5,9,NaN,knife,knife,0,4489_ps_dnn_0_knife_10_n03041632_10136.png
cornet-s,5,10,NaN,knife,knife,0,4490_ps_dnn_0_knife_10_n03041632_84012.png
cornet-s,5,11,NaN,keyboard,keyboard,0,4491_ps_dnn_0_keyboard_10_n03085013_14079.png
cornet-s,5,12,NaN,keyboard,keyboard,0,4492_ps_dnn_0_keyboard_10_n04505470_3068.png
cornet-s,5,13,NaN,keyboard,keyboard,0,4493_ps_dnn_0_keyboard_10_n04505470_2488.png
cornet-s,5,14,NaN,keyboard,keyboard,0,4494_ps_dnn_0_keyboard_10_n04505470_4795.png
cornet-s,5,15,NaN,keyboard,keyboard,0,4495_ps_dnn_0_keyboard_10_n03085013_8157.png
cornet-s,5,16,NaN,keyboard,keyboard,0,4496_ps_dnn_0_keyboard_10_n04505470_4535.png
cornet-s,5,17,NaN,keyboard,keyboard,0,4497_ps_dnn_0_keyboard_10_n04505470_8822.png
cornet-s,5,18,NaN,keyboard,keyboard,0,4498_ps_dnn_0_keyboard_10_n03085013_20727.png
cornet-s,5,19,NaN,keyboard,keyboard,0,4499_ps_dnn_0_keyboard_10_n03085013_23790.png
cornet-s,5,20,NaN,keyboard,keyboard,0,4500_ps_dnn_0_keyboard_10_n03085013_20515.png
cornet-s,5,21,NaN,elephant,elephant,0,4501_ps_dnn_0_elephant_10_n02504013_8572.png
cornet-s,5,22,NaN,elephant,elephant,0,4502_ps_dnn_0_elephant_10_n02504458_7845.png
cornet-s,5,23,NaN,elephant,elephant,0,4503_ps_dnn_0_elephant_10_n02504013_3172.png
cornet-s,5,24,NaN,elephant,elephant,0,4504_ps_dnn_0_elephant_10_n02504013_10097.png
cornet-s,5,25,NaN,elephant,elephant,0,4505_ps_dnn_0_elephant_10_n02504458_6437.png
cornet-s,5,26,NaN,elephant,elephant,0,4506_ps_dnn_0_elephant_10_n02504013_344.png
cornet-s,5,27,NaN,elephant,elephant,0,4507_ps_dnn_0_elephant_10_n02504013_22099.png
cornet-s,5,28,NaN,elephant,elephant,0,4508_ps_dnn_0_elephant_10_n02504013_3969.png
cornet-s,5,29,NaN,elephant,elephant,0,4509_ps_dnn_0_elephant_10_n02504458_146.png
cornet-s,5,30,NaN,elephant,elephant,0,4510_ps_dnn_0_elephant_10_n02504458_3437.png
cornet-s,5,31,NaN,bicycle,bicycle,0,4511_ps_dnn_0_bicycle_10_n03792782_24756.png
cornet-s,5,32,NaN,bicycle,bicycle,0,4512_ps_dnn_0_bicycle_10_n03792782_4447.png
cornet-s,5,33,NaN,bicycle,bicycle,0,4513_ps_dnn_0_bicycle_10_n02835271_5986.png
cornet-s,5,34,NaN,bicycle,bicycle,0,4514_ps_dnn_0_bicycle_10_n03792782_20190.png
cornet-s,5,35,NaN,bicycle,bicycle,0,4515_ps_dnn_0_bicycle_10_n02835271_21043.png
cornet-s,5,36,NaN,bicycle,bicycle,0,4516_ps_dnn_0_bicycle_10_n03792782_5532.png
cornet-s,5,37,NaN,bicycle,bicycle,0,4517_ps_dnn_0_bicycle_10_n03792782_15427.png
cornet-s,5,38,NaN,bicycle,bicycle,0,4518_ps_dnn_0_bicycle_10_n03792782_5232.png
cornet-s,5,39,NaN,bicycle,bicycle,0,4519_ps_dnn_0_bicycle_10_n03792782_42780.png
cornet-s,5,40,NaN,bicycle,bicycle,0,4520_ps_dnn_0_bicycle_10_n03792782_242.png
cornet-s,5,41,NaN,airplane,airplane,0,4521_ps_dnn_0_airplane_10_n02690373_4507.png
cornet-s,5,42,NaN,airplane,airplane,0,4522_ps_dnn_0_airplane_10_n02690373_4921.png
cornet-s,5,43,NaN,airplane,airplane,0,4523_ps_dnn_0_airplane_10_n02690373_5587.png
cornet-s,5,44,NaN,airplane,airplane,0,4524_ps_dnn_0_airplane_10_n02690373_2561.png
cornet-s,5,45,NaN,airplane,airplane,0,4525_ps_dnn_0_airplane_10_n02690373_8711.png
cornet-s,5,46,NaN,airplane,airplane,0,4526_ps_dnn_0_airplane_10_n02690373_1416.png
cornet-s,5,47,NaN,airplane,airplane,0,4527_ps_dnn_0_airplane_10_n02690373_20074.png
cornet-s,5,48,NaN,airplane,airplane,0,4528_ps_dnn_0_airplane_10_n02690373_13617.png
cornet-s,5,49,NaN,airplane,airplane,0,4529_ps_dnn_0_airplane_10_n02690373_8789.png
cornet-s,5,50,NaN,airplane,airplane,0,4530_ps_dnn_0_airplane_10_n02690373_8872.png
cornet-s,5,51,NaN,clock,clock,0,4531_ps_dnn_0_clock_10_n02708093_623.png
cornet-s,5,52,NaN,clock,clock,0,4532_ps_dnn_0_clock_10_n03196217_5618.png
cornet-s,5,53,NaN,clock,clock,0,4533_ps_dnn_0_clock_10_n02708093_4255.png
cornet-s,5,54,NaN,clock,clock,0,4534_ps_dnn_0_clock_10_n03196217_4834.png
cornet-s,5,55,NaN,clock,clock,0,4535_ps_dnn_0_clock_10_n03196217_1430.png
cornet-s,5,56,NaN,clock,clock,0,4536_ps_dnn_0_clock_10_n04548280_2045.png
cornet-s,5,57,NaN,clock,clock,0,4537_ps_dnn_0_clock_10_n04548280_4441.png
cornet-s,5,58,NaN,clock,clock,0,4538_ps_dnn_0_clock_10_n04548280_5798.png
cornet-s,5,59,NaN,clock,clock,0,4539_ps_dnn_0_clock_10_n04548280_2455.png
cornet-s,5,60,NaN,clock,clock,0,4540_ps_dnn_0_clock_10_n04548280_2937.png
cornet-s,5,61,NaN,oven,oven,0,4541_ps_dnn_0_oven_10_n04111531_7625.png
cornet-s,5,62,NaN,oven,oven,0,4542_ps_dnn_0_oven_10_n04111531_2456.png
cornet-s,5,63,NaN,oven,oven,0,4543_ps_dnn_0_oven_10_n04111531_7664.png
cornet-s,5,64,NaN,oven,oven,0,4544_ps_dnn_0_oven_10_n04111531_8077.png
cornet-s,5,65,NaN,oven,oven,0,4545_ps_dnn_0_oven_10_n04111531_7050.png
cornet-s,5,66,NaN,oven,oven,0,4546_ps_dnn_0_oven_10_n04111531_1723.png
cornet-s,5,67,NaN,oven,oven,0,4547_ps_dnn_0_oven_10_n04111531_12408.png
cornet-s,5,68,NaN,oven,oven,0,4548_ps_dnn_0_oven_10_n04111531_6704.png
cornet-s,5,69,NaN,oven,oven,0,4549_ps_dnn_0_oven_10_n04111531_13354.png
cornet-s,5,70,NaN,oven,oven,0,4550_ps_dnn_0_oven_10_n04111531_3580.png
cornet-s,5,71,NaN,chair,chair,0,4551_ps_dnn_0_chair_10_n02791124_2606.png
cornet-s,5,72,NaN,chair,chair,0,4552_ps_dnn_0_chair_10_n02791124_9918.png
cornet-s,5,73,NaN,chair,chair,0,4553_ps_dnn_0_chair_10_n04429376_4254.png
cornet-s,5,74,NaN,chair,chair,0,4554_ps_dnn_0_chair_10_n04429376_5067.png
cornet-s,5,75,NaN,chair,chair,0,4555_ps_dnn_0_chair_10_n04429376_3620.png
cornet-s,5,76,NaN,chair,chair,0,4556_ps_dnn_0_chair_10_n02791124_1463.png
cornet-s,5,77,NaN,chair,chair,0,4557_ps_dnn_0_chair_10_n03376595_3043.png
cornet-s,5,78,NaN,chair,chair,0,4558_ps_dnn_0_chair_10_n03376595_8958.png
cornet-s,5,79,NaN,chair,chair,0,4559_ps_dnn_0_chair_10_n02791124_3555.png
cornet-s,5,80,NaN,chair,chair,0,4560_ps_dnn_0_chair_10_n04429376_9432.png
cornet-s,5,81,NaN,bear,bear,0,4561_ps_dnn_0_bear_10_n02133161_7339.png
cornet-s,5,82,NaN,bear,bear,0,4562_ps_dnn_0_bear_10_n02133161_361.png
cornet-s,5,83,NaN,bear,bear,0,4563_ps_dnn_0_bear_10_n02134418_6001.png
cornet-s,5,84,NaN,bear,bear,0,4564_ps_dnn_0_bear_10_n02134084_6606.png
cornet-s,5,85,NaN,bear,bear,0,4565_ps_dnn_0_bear_10_n02132136_9829.png
cornet-s,5,86,NaN,bear,bear,0,4566_ps_dnn_0_bear_10_n02134418_14850.png
cornet-s,5,87,NaN,bear,bear,0,4567_ps_dnn_0_bear_10_n02134084_13205.png
cornet-s,5,88,NaN,dog,bear,0,4568_ps_dnn_0_bear_10_n02133161_13184.png
cornet-s,5,89,NaN,bear,bear,0,4569_ps_dnn_0_bear_10_n02134418_2964.png
cornet-s,5,90,NaN,bear,bear,0,4570_ps_dnn_0_bear_10_n02132136_6481.png
cornet-s,5,91,NaN,boat,boat,0,4571_ps_dnn_0_boat_10_n03344393_2204.png
cornet-s,5,92,NaN,boat,boat,0,4572_ps_dnn_0_boat_10_n04612504_993.png
cornet-s,5,93,NaN,boat,boat,0,4573_ps_dnn_0_boat_10_n04273569_9693.png
cornet-s,5,94,NaN,boat,boat,0,4574_ps_dnn_0_boat_10_n04612504_6552.png
cornet-s,5,95,NaN,boat,boat,0,4575_ps_dnn_0_boat_10_n02951358_11190.png
cornet-s,5,96,NaN,boat,boat,0,4576_ps_dnn_0_boat_10_n04273569_4327.png
cornet-s,5,97,NaN,boat,boat,0,4577_ps_dnn_0_boat_10_n03662601_13008.png
cornet-s,5,98,NaN,boat,boat,0,4578_ps_dnn_0_boat_10_n04273569_7315.png
cornet-s,5,99,NaN,boat,boat,0,4579_ps_dnn_0_boat_10_n03662601_22070.png
cornet-s,5,100,NaN,boat,boat,0,4580_ps_dnn_0_boat_10_n03344393_6517.png
cornet-s,5,101,NaN,cat,cat,0,4581_ps_dnn_0_cat_10_n02125311_22459.png
cornet-s,5,102,NaN,cat,cat,0,4582_ps_dnn_0_cat_10_n02125311_29159.png
cornet-s,5,103,NaN,cat,cat,0,4583_ps_dnn_0_cat_10_n02125311_4952.png
cornet-s,5,104,NaN,cat,cat,0,4584_ps_dnn_0_cat_10_n02123045_4742.png
cornet-s,5,105,NaN,cat,cat,0,4585_ps_dnn_0_cat_10_n02123597_31773.png
cornet-s,5,106,NaN,cat,cat,0,4586_ps_dnn_0_cat_10_n02123394_4775.png
cornet-s,5,107,NaN,cat,cat,0,4587_ps_dnn_0_cat_10_n02123045_2390.png
cornet-s,5,108,NaN,cat,cat,0,4588_ps_dnn_0_cat_10_n02123045_4089.png
cornet-s,5,109,NaN,cat,cat,0,4589_ps_dnn_0_cat_10_n02123394_2354.png
cornet-s,5,110,NaN,cat,cat,0,4590_ps_dnn_0_cat_10_n02125311_17266.png
cornet-s,5,111,NaN,bottle,bottle,0,4591_ps_dnn_0_bottle_10_n04557648_10258.png
cornet-s,5,112,NaN,bottle,bottle,0,4592_ps_dnn_0_bottle_10_n04557648_9587.png
cornet-s,5,113,NaN,bottle,bottle,0,4593_ps_dnn_0_bottle_10_n02823428_4580.png
cornet-s,5,114,NaN,bottle,bottle,0,4594_ps_dnn_0_bottle_10_n04591713_2359.png
cornet-s,5,115,NaN,bottle,bottle,0,4595_ps_dnn_0_bottle_10_n04591713_11370.png
cornet-s,5,116,NaN,bottle,bottle,0,4596_ps_dnn_0_bottle_10_n03937543_3126.png
cornet-s,5,117,NaN,bottle,bottle,0,4597_ps_dnn_0_bottle_10_n03937543_5567.png
cornet-s,5,118,NaN,bottle,bottle,0,4598_ps_dnn_0_bottle_10_n04560804_16052.png
cornet-s,5,119,NaN,bottle,bottle,0,4599_ps_dnn_0_bottle_10_n02823428_79.png
cornet-s,5,120,NaN,bottle,bottle,0,4600_ps_dnn_0_bottle_10_n03937543_2037.png
cornet-s,5,121,NaN,truck,truck,0,4601_ps_dnn_0_truck_10_n03796401_21949.png
cornet-s,5,122,NaN,truck,truck,0,4602_ps_dnn_0_truck_10_n03417042_27862.png
cornet-s,5,123,NaN,truck,truck,0,4603_ps_dnn_0_truck_10_n04467665_21912.png
cornet-s,5,124,NaN,truck,truck,0,4604_ps_dnn_0_truck_10_n03417042_11704.png
cornet-s,5,125,NaN,truck,truck,0,4605_ps_dnn_0_truck_10_n03417042_6888.png
cornet-s,5,126,NaN,truck,truck,0,4606_ps_dnn_0_truck_10_n03417042_634.png
cornet-s,5,127,NaN,truck,truck,0,4607_ps_dnn_0_truck_10_n04467665_11830.png
cornet-s,5,128,NaN,truck,truck,0,4608_ps_dnn_0_truck_10_n03417042_5493.png
cornet-s,5,129,NaN,truck,truck,0,4609_ps_dnn_0_truck_10_n03417042_1492.png
cornet-s,5,130,NaN,truck,truck,0,4610_ps_dnn_0_truck_10_n03417042_10289.png
cornet-s,5,131,NaN,car,car,0,4611_ps_dnn_0_car_10_n02814533_982.png
cornet-s,5,132,NaN,car,car,0,4612_ps_dnn_0_car_10_n03100240_52.png
cornet-s,5,133,NaN,car,car,0,4613_ps_dnn_0_car_10_n03100240_2683.png
cornet-s,5,134,NaN,car,car,0,4614_ps_dnn_0_car_10_n02814533_73210.png
cornet-s,5,135,NaN,car,car,0,4615_ps_dnn_0_car_10_n03100240_7454.png
cornet-s,5,136,NaN,car,car,0,4616_ps_dnn_0_car_10_n04285008_7215.png
cornet-s,5,137,NaN,car,car,0,4617_ps_dnn_0_car_10_n04285008_10108.png
cornet-s,5,138,NaN,car,car,0,4618_ps_dnn_0_car_10_n03100240_3070.png
cornet-s,5,139,NaN,car,car,0,4619_ps_dnn_0_car_10_n02814533_18077.png
cornet-s,5,140,NaN,car,car,0,4620_ps_dnn_0_car_10_n03100240_6913.png
cornet-s,5,141,NaN,bird,bird,0,4621_ps_dnn_0_bird_10_n01819313_5142.png
cornet-s,5,142,NaN,bird,bird,0,4622_ps_dnn_0_bird_10_n01855032_3747.png
cornet-s,5,143,NaN,bird,bird,0,4623_ps_dnn_0_bird_10_n01560419_17874.png
cornet-s,5,144,NaN,bird,bird,0,4624_ps_dnn_0_bird_10_n01592084_6934.png
cornet-s,5,145,NaN,bird,bird,0,4625_ps_dnn_0_bird_10_n01558993_19761.png
cornet-s,5,146,NaN,bird,bird,0,4626_ps_dnn_0_bird_10_n02002556_10991.png
cornet-s,5,147,NaN,bird,bird,0,4627_ps_dnn_0_bird_10_n01530575_6733.png
cornet-s,5,148,NaN,bird,bird,0,4628_ps_dnn_0_bird_10_n02037110_8339.png
cornet-s,5,149,NaN,bird,bird,0,4629_ps_dnn_0_bird_10_n01582220_8400.png
cornet-s,5,150,NaN,bird,bird,0,4630_ps_dnn_0_bird_10_n01616318_12751.png
cornet-s,5,151,NaN,knife,dog,0,4631_ps_dnn_0_dog_10_n02107574_3641.png
cornet-s,5,152,NaN,dog,dog,0,4632_ps_dnn_0_dog_10_n02107908_7295.png
cornet-s,5,153,NaN,dog,dog,0,4633_ps_dnn_0_dog_10_n02099849_4665.png
cornet-s,5,154,NaN,dog,dog,0,4634_ps_dnn_0_dog_10_n02109961_58994.png
cornet-s,5,155,NaN,dog,dog,0,4635_ps_dnn_0_dog_10_n02093428_1670.png
cornet-s,5,156,NaN,dog,dog,0,4636_ps_dnn_0_dog_10_n02106662_8828.png
cornet-s,5,157,NaN,dog,dog,0,4637_ps_dnn_0_dog_10_n02091032_6223.png
cornet-s,5,158,NaN,dog,dog,0,4638_ps_dnn_0_dog_10_n02107574_6160.png
cornet-s,5,159,NaN,dog,dog,0,4639_ps_dnn_0_dog_10_n02098286_1989.png
cornet-s,5,160,NaN,dog,dog,0,4640_ps_dnn_0_dog_10_n02113799_8221.png
cornet-s,5,161,NaN,knife,knife,30,4641_ps_dnn_30_knife_10_n03041632_44230.png
cornet-s,5,162,NaN,knife,knife,30,4642_ps_dnn_30_knife_10_n03041632_46422.png
cornet-s,5,163,NaN,knife,knife,30,4643_ps_dnn_30_knife_10_n03041632_932.png
cornet-s,5,164,NaN,knife,knife,30,4644_ps_dnn_30_knife_10_n03041632_5427.png
cornet-s,5,165,NaN,knife,knife,30,4645_ps_dnn_30_knife_10_n03041632_42162.png
cornet-s,5,166,NaN,knife,knife,30,4646_ps_dnn_30_knife_10_n03041632_95293.png
cornet-s,5,167,NaN,knife,knife,30,4647_ps_dnn_30_knife_10_n03041632_47410.png
cornet-s,5,168,NaN,knife,knife,30,4648_ps_dnn_30_knife_10_n03041632_29038.png
cornet-s,5,169,NaN,knife,knife,30,4649_ps_dnn_30_knife_10_n03041632_33488.png
cornet-s,5,170,NaN,knife,knife,30,4650_ps_dnn_30_knife_10_n03041632_1884.png
cornet-s,5,171,NaN,oven,keyboard,30,4651_ps_dnn_30_keyboard_10_n04505470_5046.png
cornet-s,5,172,NaN,keyboard,keyboard,30,4652_ps_dnn_30_keyboard_10_n04505470_9331.png
cornet-s,5,173,NaN,keyboard,keyboard,30,4653_ps_dnn_30_keyboard_10_n04505470_9113.png
cornet-s,5,174,NaN,keyboard,keyboard,30,4654_ps_dnn_30_keyboard_10_n03085013_18510.png
cornet-s,5,175,NaN,keyboard,keyboard,30,4655_ps_dnn_30_keyboard_10_n03085013_10660.png
cornet-s,5,176,NaN,keyboard,keyboard,30,4656_ps_dnn_30_keyboard_10_n04505470_3002.png
cornet-s,5,177,NaN,keyboard,keyboard,30,4657_ps_dnn_30_keyboard_10_n03085013_20492.png
cornet-s,5,178,NaN,chair,keyboard,30,4658_ps_dnn_30_keyboard_10_n03085013_2752.png
cornet-s,5,179,NaN,keyboard,keyboard,30,4659_ps_dnn_30_keyboard_10_n03085013_23119.png
cornet-s,5,180,NaN,keyboard,keyboard,30,4660_ps_dnn_30_keyboard_10_n03085013_29318.png
cornet-s,5,181,NaN,elephant,elephant,30,4661_ps_dnn_30_elephant_10_n02504013_7688.png
cornet-s,5,182,NaN,elephant,elephant,30,4662_ps_dnn_30_elephant_10_n02504458_5470.png
cornet-s,5,183,NaN,elephant,elephant,30,4663_ps_dnn_30_elephant_10_n02504013_8052.png
cornet-s,5,184,NaN,elephant,elephant,30,4664_ps_dnn_30_elephant_10_n02504458_5243.png
cornet-s,5,185,NaN,elephant,elephant,30,4665_ps_dnn_30_elephant_10_n02504013_5895.png
cornet-s,5,186,NaN,elephant,elephant,30,4666_ps_dnn_30_elephant_10_n02504013_816.png
cornet-s,5,187,NaN,elephant,elephant,30,4667_ps_dnn_30_elephant_10_n02504458_13245.png
cornet-s,5,188,NaN,elephant,elephant,30,4668_ps_dnn_30_elephant_10_n02504458_10428.png
cornet-s,5,189,NaN,elephant,elephant,30,4669_ps_dnn_30_elephant_10_n02504013_782.png
cornet-s,5,190,NaN,elephant,elephant,30,4670_ps_dnn_30_elephant_10_n02504458_5434.png
cornet-s,5,191,NaN,bicycle,bicycle,30,4671_ps_dnn_30_bicycle_10_n03792782_7696.png
cornet-s,5,192,NaN,bicycle,bicycle,30,4672_ps_dnn_30_bicycle_10_n02835271_11844.png
cornet-s,5,193,NaN,bicycle,bicycle,30,4673_ps_dnn_30_bicycle_10_n03792782_8333.png
cornet-s,5,194,NaN,bicycle,bicycle,30,4674_ps_dnn_30_bicycle_10_n03792782_7212.png
cornet-s,5,195,NaN,bicycle,bicycle,30,4675_ps_dnn_30_bicycle_10_n03792782_17538.png
cornet-s,5,196,NaN,bicycle,bicycle,30,4676_ps_dnn_30_bicycle_10_n03792782_31908.png
cornet-s,5,197,NaN,bicycle,bicycle,30,4677_ps_dnn_30_bicycle_10_n02835271_19711.png
cornet-s,5,198,NaN,bicycle,bicycle,30,4678_ps_dnn_30_bicycle_10_n03792782_18896.png
cornet-s,5,199,NaN,bicycle,bicycle,30,4679_ps_dnn_30_bicycle_10_n03792782_14216.png
cornet-s,5,200,NaN,bicycle,bicycle,30,4680_ps_dnn_30_bicycle_10_n03792782_40932.png
cornet-s,5,201,NaN,airplane,airplane,30,4681_ps_dnn_30_airplane_10_n02690373_6891.png
cornet-s,5,202,NaN,airplane,airplane,30,4682_ps_dnn_30_airplane_10_n02690373_919.png
cornet-s,5,203,NaN,airplane,airplane,30,4683_ps_dnn_30_airplane_10_n02690373_4588.png
cornet-s,5,204,NaN,airplane,airplane,30,4684_ps_dnn_30_airplane_10_n02690373_19152.png
cornet-s,5,205,NaN,airplane,airplane,30,4685_ps_dnn_30_airplane_10_n02690373_10510.png
cornet-s,5,206,NaN,airplane,airplane,30,4686_ps_dnn_30_airplane_10_n02690373_4873.png
cornet-s,5,207,NaN,airplane,airplane,30,4687_ps_dnn_30_airplane_10_n02690373_9626.png
cornet-s,5,208,NaN,airplane,airplane,30,4688_ps_dnn_30_airplane_10_n02690373_18871.png
cornet-s,5,209,NaN,airplane,airplane,30,4689_ps_dnn_30_airplane_10_n02690373_60.png
cornet-s,5,210,NaN,airplane,airplane,30,4690_ps_dnn_30_airplane_10_n02690373_13318.png
cornet-s,5,211,NaN,clock,clock,30,4691_ps_dnn_30_clock_10_n03196217_5.png
cornet-s,5,212,NaN,clock,clock,30,4692_ps_dnn_30_clock_10_n04548280_8668.png
cornet-s,5,213,NaN,clock,clock,30,4693_ps_dnn_30_clock_10_n03196217_4486.png
cornet-s,5,214,NaN,clock,clock,30,4694_ps_dnn_30_clock_10_n03196217_8785.png
cornet-s,5,215,NaN,clock,clock,30,4695_ps_dnn_30_clock_10_n03196217_8034.png
cornet-s,5,216,NaN,clock,clock,30,4696_ps_dnn_30_clock_10_n04548280_4894.png
cornet-s,5,217,NaN,clock,clock,30,4697_ps_dnn_30_clock_10_n02708093_6352.png
cornet-s,5,218,NaN,clock,clock,30,4698_ps_dnn_30_clock_10_n02708093_570.png
cornet-s,5,219,NaN,clock,clock,30,4699_ps_dnn_30_clock_10_n03196217_5463.png
cornet-s,5,220,NaN,clock,clock,30,4700_ps_dnn_30_clock_10_n03196217_422.png
cornet-s,5,221,NaN,oven,oven,30,4701_ps_dnn_30_oven_10_n04111531_8305.png
cornet-s,5,222,NaN,oven,oven,30,4702_ps_dnn_30_oven_10_n04111531_17576.png
cornet-s,5,223,NaN,oven,oven,30,4703_ps_dnn_30_oven_10_n04111531_3314.png
cornet-s,5,224,NaN,oven,oven,30,4704_ps_dnn_30_oven_10_n04111531_2650.png
cornet-s,5,225,NaN,oven,oven,30,4705_ps_dnn_30_oven_10_n04111531_5801.png
cornet-s,5,226,NaN,oven,oven,30,4706_ps_dnn_30_oven_10_n04111531_14383.png
cornet-s,5,227,NaN,oven,oven,30,4707_ps_dnn_30_oven_10_n04111531_498.png
cornet-s,5,228,NaN,oven,oven,30,4708_ps_dnn_30_oven_10_n04111531_9289.png
cornet-s,5,229,NaN,oven,oven,30,4709_ps_dnn_30_oven_10_n04111531_2091.png
cornet-s,5,230,NaN,oven,oven,30,4710_ps_dnn_30_oven_10_n04111531_4817.png
cornet-s,5,231,NaN,chair,chair,30,4711_ps_dnn_30_chair_10_n04429376_5770.png
cornet-s,5,232,NaN,chair,chair,30,4712_ps_dnn_30_chair_10_n04429376_8921.png
cornet-s,5,233,NaN,chair,chair,30,4713_ps_dnn_30_chair_10_n04099969_2098.png
cornet-s,5,234,NaN,chair,chair,30,4714_ps_dnn_30_chair_10_n02791124_2825.png
cornet-s,5,235,NaN,chair,chair,30,4715_ps_dnn_30_chair_10_n04429376_24716.png
cornet-s,5,236,NaN,bottle,chair,30,4716_ps_dnn_30_chair_10_n03376595_16763.png
cornet-s,5,237,NaN,chair,chair,30,4717_ps_dnn_30_chair_10_n03376595_9523.png
cornet-s,5,238,NaN,chair,chair,30,4718_ps_dnn_30_chair_10_n02791124_2343.png
cornet-s,5,239,NaN,chair,chair,30,4719_ps_dnn_30_chair_10_n04099969_1543.png
cornet-s,5,240,NaN,chair,chair,30,4720_ps_dnn_30_chair_10_n03376595_6759.png
cornet-s,5,241,NaN,bear,bear,30,4721_ps_dnn_30_bear_10_n02134418_4735.png
cornet-s,5,242,NaN,bear,bear,30,4722_ps_dnn_30_bear_10_n02134084_3898.png
cornet-s,5,243,NaN,bear,bear,30,4723_ps_dnn_30_bear_10_n02133161_11422.png
cornet-s,5,244,NaN,bear,bear,30,4724_ps_dnn_30_bear_10_n02134418_213.png
cornet-s,5,245,NaN,bear,bear,30,4725_ps_dnn_30_bear_10_n02133161_7401.png
cornet-s,5,246,NaN,bear,bear,30,4726_ps_dnn_30_bear_10_n02132136_14832.png
cornet-s,5,247,NaN,bear,bear,30,4727_ps_dnn_30_bear_10_n02132136_22602.png
cornet-s,5,248,NaN,bicycle,bear,30,4728_ps_dnn_30_bear_10_n02134418_5684.png
cornet-s,5,249,NaN,bear,bear,30,4729_ps_dnn_30_bear_10_n02132136_896.png
cornet-s,5,250,NaN,bear,bear,30,4730_ps_dnn_30_bear_10_n02133161_6593.png
cornet-s,5,251,NaN,boat,boat,30,4731_ps_dnn_30_boat_10_n03344393_4916.png
cornet-s,5,252,NaN,boat,boat,30,4732_ps_dnn_30_boat_10_n03662601_12264.png
cornet-s,5,253,NaN,boat,boat,30,4733_ps_dnn_30_boat_10_n02951358_34893.png
cornet-s,5,254,NaN,boat,boat,30,4734_ps_dnn_30_boat_10_n04273569_1280.png
cornet-s,5,255,NaN,boat,boat,30,4735_ps_dnn_30_boat_10_n03344393_2937.png
cornet-s,5,256,NaN,boat,boat,30,4736_ps_dnn_30_boat_10_n04273569_18070.png
cornet-s,5,257,NaN,boat,boat,30,4737_ps_dnn_30_boat_10_n03662601_15107.png
cornet-s,5,258,NaN,boat,boat,30,4738_ps_dnn_30_boat_10_n03344393_6984.png
cornet-s,5,259,NaN,boat,boat,30,4739_ps_dnn_30_boat_10_n04273569_16295.png
cornet-s,5,260,NaN,boat,boat,30,4740_ps_dnn_30_boat_10_n04273569_3313.png
cornet-s,5,261,NaN,cat,cat,30,4741_ps_dnn_30_cat_10_n02123394_1783.png
cornet-s,5,262,NaN,cat,cat,30,4742_ps_dnn_30_cat_10_n02123045_458.png
cornet-s,5,263,NaN,cat,cat,30,4743_ps_dnn_30_cat_10_n02125311_36195.png
cornet-s,5,264,NaN,cat,cat,30,4744_ps_dnn_30_cat_10_n02123394_6698.png
cornet-s,5,265,NaN,cat,cat,30,4745_ps_dnn_30_cat_10_n02124075_12327.png
cornet-s,5,266,NaN,cat,cat,30,4746_ps_dnn_30_cat_10_n02123045_2511.png
cornet-s,5,267,NaN,cat,cat,30,4747_ps_dnn_30_cat_10_n02123159_2127.png
cornet-s,5,268,NaN,cat,cat,30,4748_ps_dnn_30_cat_10_n02123045_901.png
cornet-s,5,269,NaN,cat,cat,30,4749_ps_dnn_30_cat_10_n02123159_4663.png
cornet-s,5,270,NaN,cat,cat,30,4750_ps_dnn_30_cat_10_n02123159_6395.png
cornet-s,5,271,NaN,bottle,bottle,30,4751_ps_dnn_30_bottle_10_n03983396_10237.png
cornet-s,5,272,NaN,bottle,bottle,30,4752_ps_dnn_30_bottle_10_n04591713_3441.png
cornet-s,5,273,NaN,bottle,bottle,30,4753_ps_dnn_30_bottle_10_n04579145_5078.png
cornet-s,5,274,NaN,bottle,bottle,30,4754_ps_dnn_30_bottle_10_n02823428_8929.png
cornet-s,5,275,NaN,bottle,bottle,30,4755_ps_dnn_30_bottle_10_n04557648_3662.png
cornet-s,5,276,NaN,bottle,bottle,30,4756_ps_dnn_30_bottle_10_n04557648_1026.png
cornet-s,5,277,NaN,bottle,bottle,30,4757_ps_dnn_30_bottle_10_n03937543_9697.png
cornet-s,5,278,NaN,bicycle,bottle,30,4758_ps_dnn_30_bottle_10_n04591713_5919.png
cornet-s,5,279,NaN,knife,bottle,30,4759_ps_dnn_30_bottle_10_n03983396_12728.png
cornet-s,5,280,NaN,bottle,bottle,30,4760_ps_dnn_30_bottle_10_n03983396_9776.png
cornet-s,5,281,NaN,truck,truck,30,4761_ps_dnn_30_truck_10_n04467665_62439.png
cornet-s,5,282,NaN,truck,truck,30,4762_ps_dnn_30_truck_10_n04467665_54512.png
cornet-s,5,283,NaN,truck,truck,30,4763_ps_dnn_30_truck_10_n03417042_9121.png
cornet-s,5,284,NaN,chair,truck,30,4764_ps_dnn_30_truck_10_n03796401_13310.png
cornet-s,5,285,NaN,truck,truck,30,4765_ps_dnn_30_truck_10_n04467665_67717.png
cornet-s,5,286,NaN,truck,truck,30,4766_ps_dnn_30_truck_10_n03796401_6774.png
cornet-s,5,287,NaN,truck,truck,30,4767_ps_dnn_30_truck_10_n03417042_15482.png
cornet-s,5,288,NaN,truck,truck,30,4768_ps_dnn_30_truck_10_n04467665_44850.png
cornet-s,5,289,NaN,truck,truck,30,4769_ps_dnn_30_truck_10_n03417042_3107.png
cornet-s,5,290,NaN,truck,truck,30,4770_ps_dnn_30_truck_10_n03417042_10751.png
cornet-s,5,291,NaN,car,car,30,4771_ps_dnn_30_car_10_n03100240_15334.png
cornet-s,5,292,NaN,car,car,30,4772_ps_dnn_30_car_10_n04285008_3227.png
cornet-s,5,293,NaN,car,car,30,4773_ps_dnn_30_car_10_n03100240_10049.png
cornet-s,5,294,NaN,truck,car,30,4774_ps_dnn_30_car_10_n02814533_41670.png
cornet-s,5,295,NaN,car,car,30,4775_ps_dnn_30_car_10_n03100240_2795.png
cornet-s,5,296,NaN,car,car,30,4776_ps_dnn_30_car_10_n03100240_11406.png
cornet-s,5,297,NaN,car,car,30,4777_ps_dnn_30_car_10_n03100240_2018.png
cornet-s,5,298,NaN,truck,car,30,4778_ps_dnn_30_car_10_n03100240_2425.png
cornet-s,5,299,NaN,car,car,30,4779_ps_dnn_30_car_10_n04285008_13642.png
cornet-s,5,300,NaN,car,car,30,4780_ps_dnn_30_car_10_n03100240_9982.png
cornet-s,5,301,NaN,bird,bird,30,4781_ps_dnn_30_bird_10_n01531178_12015.png
cornet-s,5,302,NaN,bird,bird,30,4782_ps_dnn_30_bird_10_n01530575_8253.png
cornet-s,5,303,NaN,bird,bird,30,4783_ps_dnn_30_bird_10_n01537544_13410.png
cornet-s,5,304,NaN,bird,bird,30,4784_ps_dnn_30_bird_10_n02013706_3338.png
cornet-s,5,305,NaN,bird,bird,30,4785_ps_dnn_30_bird_10_n01534433_25676.png
cornet-s,5,306,NaN,bird,bird,30,4786_ps_dnn_30_bird_10_n01820546_4705.png
cornet-s,5,307,NaN,cat,bird,30,4787_ps_dnn_30_bird_10_n01622779_8380.png
cornet-s,5,308,NaN,bird,bird,30,4788_ps_dnn_30_bird_10_n01833805_10240.png
cornet-s,5,309,NaN,bird,bird,30,4789_ps_dnn_30_bird_10_n01558993_19957.png
cornet-s,5,310,NaN,bird,bird,30,4790_ps_dnn_30_bird_10_n02011460_3761.png
cornet-s,5,311,NaN,dog,dog,30,4791_ps_dnn_30_dog_10_n02108915_3472.png
cornet-s,5,312,NaN,dog,dog,30,4792_ps_dnn_30_dog_10_n02097298_4139.png
cornet-s,5,313,NaN,dog,dog,30,4793_ps_dnn_30_dog_10_n02094258_6398.png
cornet-s,5,314,NaN,dog,dog,30,4794_ps_dnn_30_dog_10_n02108422_2679.png
cornet-s,5,315,NaN,dog,dog,30,4795_ps_dnn_30_dog_10_n02100583_17049.png
cornet-s,5,316,NaN,dog,dog,30,4796_ps_dnn_30_dog_10_n02105505_5038.png
cornet-s,5,317,NaN,dog,dog,30,4797_ps_dnn_30_dog_10_n02086240_5325.png
cornet-s,5,318,NaN,dog,dog,30,4798_ps_dnn_30_dog_10_n02096585_811.png
cornet-s,5,319,NaN,dog,dog,30,4799_ps_dnn_30_dog_10_n02105251_1430.png
cornet-s,5,320,NaN,boat,dog,30,4800_ps_dnn_30_dog_10_n02111500_8654.png
cornet-s,5,321,NaN,knife,knife,60,4801_ps_dnn_60_knife_10_n03041632_29580.png
cornet-s,5,322,NaN,knife,knife,60,4802_ps_dnn_60_knife_10_n03041632_7707.png
cornet-s,5,323,NaN,knife,knife,60,4803_ps_dnn_60_knife_10_n03041632_2438.png
cornet-s,5,324,NaN,knife,knife,60,4804_ps_dnn_60_knife_10_n03041632_9488.png
cornet-s,5,325,NaN,bottle,knife,60,4805_ps_dnn_60_knife_10_n03041632_76163.png
cornet-s,5,326,NaN,knife,knife,60,4806_ps_dnn_60_knife_10_n03041632_94202.png
cornet-s,5,327,NaN,chair,knife,60,4807_ps_dnn_60_knife_10_n03041632_24384.png
cornet-s,5,328,NaN,knife,knife,60,4808_ps_dnn_60_knife_10_n03041632_10540.png
cornet-s,5,329,NaN,knife,knife,60,4809_ps_dnn_60_knife_10_n03041632_30196.png
cornet-s,5,330,NaN,clock,knife,60,4810_ps_dnn_60_knife_10_n03041632_54627.png
cornet-s,5,331,NaN,keyboard,keyboard,60,4811_ps_dnn_60_keyboard_10_n04505470_1719.png
cornet-s,5,332,NaN,clock,keyboard,60,4812_ps_dnn_60_keyboard_10_n03085013_10366.png
cornet-s,5,333,NaN,keyboard,keyboard,60,4813_ps_dnn_60_keyboard_10_n04505470_5127.png
cornet-s,5,334,NaN,keyboard,keyboard,60,4814_ps_dnn_60_keyboard_10_n04505470_6656.png
cornet-s,5,335,NaN,truck,keyboard,60,4815_ps_dnn_60_keyboard_10_n03085013_2625.png
cornet-s,5,336,NaN,keyboard,keyboard,60,4816_ps_dnn_60_keyboard_10_n03085013_24102.png
cornet-s,5,337,NaN,keyboard,keyboard,60,4817_ps_dnn_60_keyboard_10_n04505470_1342.png
cornet-s,5,338,NaN,keyboard,keyboard,60,4818_ps_dnn_60_keyboard_10_n03085013_24217.png
cornet-s,5,339,NaN,clock,keyboard,60,4819_ps_dnn_60_keyboard_10_n03085013_18719.png
cornet-s,5,340,NaN,keyboard,keyboard,60,4820_ps_dnn_60_keyboard_10_n03085013_9318.png
cornet-s,5,341,NaN,elephant,elephant,60,4821_ps_dnn_60_elephant_10_n02504013_6483.png
cornet-s,5,342,NaN,boat,elephant,60,4822_ps_dnn_60_elephant_10_n02504458_1291.png
cornet-s,5,343,NaN,elephant,elephant,60,4823_ps_dnn_60_elephant_10_n02504013_1257.png
cornet-s,5,344,NaN,elephant,elephant,60,4824_ps_dnn_60_elephant_10_n02504013_1604.png
cornet-s,5,345,NaN,elephant,elephant,60,4825_ps_dnn_60_elephant_10_n02504458_787.png
cornet-s,5,346,NaN,elephant,elephant,60,4826_ps_dnn_60_elephant_10_n02504013_5876.png
cornet-s,5,347,NaN,elephant,elephant,60,4827_ps_dnn_60_elephant_10_n02504458_4372.png
cornet-s,5,348,NaN,elephant,elephant,60,4828_ps_dnn_60_elephant_10_n02504458_5483.png
cornet-s,5,349,NaN,elephant,elephant,60,4829_ps_dnn_60_elephant_10_n02504013_8067.png
cornet-s,5,350,NaN,elephant,elephant,60,4830_ps_dnn_60_elephant_10_n02504013_23998.png
cornet-s,5,351,NaN,bicycle,bicycle,60,4831_ps_dnn_60_bicycle_10_n02835271_1826.png
cornet-s,5,352,NaN,chair,bicycle,60,4832_ps_dnn_60_bicycle_10_n03792782_1062.png
cornet-s,5,353,NaN,bicycle,bicycle,60,4833_ps_dnn_60_bicycle_10_n03792782_19744.png
cornet-s,5,354,NaN,bicycle,bicycle,60,4834_ps_dnn_60_bicycle_10_n02835271_20761.png
cornet-s,5,355,NaN,bicycle,bicycle,60,4835_ps_dnn_60_bicycle_10_n03792782_32272.png
cornet-s,5,356,NaN,bicycle,bicycle,60,4836_ps_dnn_60_bicycle_10_n03792782_5030.png
cornet-s,5,357,NaN,bicycle,bicycle,60,4837_ps_dnn_60_bicycle_10_n02835271_9623.png
cornet-s,5,358,NaN,bicycle,bicycle,60,4838_ps_dnn_60_bicycle_10_n03792782_24085.png
cornet-s,5,359,NaN,bicycle,bicycle,60,4839_ps_dnn_60_bicycle_10_n03792782_2182.png
cornet-s,5,360,NaN,bicycle,bicycle,60,4840_ps_dnn_60_bicycle_10_n03792782_6196.png
cornet-s,5,361,NaN,airplane,airplane,60,4841_ps_dnn_60_airplane_10_n02690373_2509.png
cornet-s,5,362,NaN,airplane,airplane,60,4842_ps_dnn_60_airplane_10_n02690373_2675.png
cornet-s,5,363,NaN,airplane,airplane,60,4843_ps_dnn_60_airplane_10_n02690373_1815.png
cornet-s,5,364,NaN,airplane,airplane,60,4844_ps_dnn_60_airplane_10_n02690373_3620.png
cornet-s,5,365,NaN,airplane,airplane,60,4845_ps_dnn_60_airplane_10_n02690373_9376.png
cornet-s,5,366,NaN,airplane,airplane,60,4846_ps_dnn_60_airplane_10_n02690373_1589.png
cornet-s,5,367,NaN,airplane,airplane,60,4847_ps_dnn_60_airplane_10_n02690373_12813.png
cornet-s,5,368,NaN,airplane,airplane,60,4848_ps_dnn_60_airplane_10_n02690373_2643.png
cornet-s,5,369,NaN,airplane,airplane,60,4849_ps_dnn_60_airplane_10_n02690373_6834.png
cornet-s,5,370,NaN,airplane,airplane,60,4850_ps_dnn_60_airplane_10_n02690373_7457.png
cornet-s,5,371,NaN,clock,clock,60,4851_ps_dnn_60_clock_10_n02708093_615.png
cornet-s,5,372,NaN,boat,clock,60,4852_ps_dnn_60_clock_10_n03196217_1234.png
cornet-s,5,373,NaN,clock,clock,60,4853_ps_dnn_60_clock_10_n03196217_3035.png
cornet-s,5,374,NaN,clock,clock,60,4854_ps_dnn_60_clock_10_n02708093_1921.png
cornet-s,5,375,NaN,clock,clock,60,4855_ps_dnn_60_clock_10_n02708093_3662.png
cornet-s,5,376,NaN,chair,clock,60,4856_ps_dnn_60_clock_10_n04548280_5459.png
cornet-s,5,377,NaN,clock,clock,60,4857_ps_dnn_60_clock_10_n02708093_3360.png
cornet-s,5,378,NaN,knife,clock,60,4858_ps_dnn_60_clock_10_n03196217_1364.png
cornet-s,5,379,NaN,clock,clock,60,4859_ps_dnn_60_clock_10_n02708093_7816.png
cornet-s,5,380,NaN,clock,clock,60,4860_ps_dnn_60_clock_10_n04548280_4524.png
cornet-s,5,381,NaN,oven,oven,60,4861_ps_dnn_60_oven_10_n04111531_9370.png
cornet-s,5,382,NaN,bird,oven,60,4862_ps_dnn_60_oven_10_n04111531_7189.png
cornet-s,5,383,NaN,oven,oven,60,4863_ps_dnn_60_oven_10_n04111531_6428.png
cornet-s,5,384,NaN,oven,oven,60,4864_ps_dnn_60_oven_10_n04111531_21855.png
cornet-s,5,385,NaN,oven,oven,60,4865_ps_dnn_60_oven_10_n04111531_10199.png
cornet-s,5,386,NaN,oven,oven,60,4866_ps_dnn_60_oven_10_n04111531_14279.png
cornet-s,5,387,NaN,oven,oven,60,4867_ps_dnn_60_oven_10_n04111531_5336.png
cornet-s,5,388,NaN,truck,oven,60,4868_ps_dnn_60_oven_10_n04111531_11026.png
cornet-s,5,389,NaN,knife,oven,60,4869_ps_dnn_60_oven_10_n04111531_6851.png
cornet-s,5,390,NaN,oven,oven,60,4870_ps_dnn_60_oven_10_n04111531_9322.png
cornet-s,5,391,NaN,chair,chair,60,4871_ps_dnn_60_chair_10_n03376595_2322.png
cornet-s,5,392,NaN,chair,chair,60,4872_ps_dnn_60_chair_10_n03376595_8137.png
cornet-s,5,393,NaN,chair,chair,60,4873_ps_dnn_60_chair_10_n04429376_21424.png
cornet-s,5,394,NaN,boat,chair,60,4874_ps_dnn_60_chair_10_n04099969_44101.png
cornet-s,5,395,NaN,clock,chair,60,4875_ps_dnn_60_chair_10_n04099969_37247.png
cornet-s,5,396,NaN,chair,chair,60,4876_ps_dnn_60_chair_10_n04099969_4275.png
cornet-s,5,397,NaN,chair,chair,60,4877_ps_dnn_60_chair_10_n02791124_7393.png
cornet-s,5,398,NaN,chair,chair,60,4878_ps_dnn_60_chair_10_n02791124_515.png
cornet-s,5,399,NaN,chair,chair,60,4879_ps_dnn_60_chair_10_n03376595_11346.png
cornet-s,5,400,NaN,chair,chair,60,4880_ps_dnn_60_chair_10_n03376595_12602.png
cornet-s,5,401,NaN,cat,bear,60,4881_ps_dnn_60_bear_10_n02134084_7675.png
cornet-s,5,402,NaN,bear,bear,60,4882_ps_dnn_60_bear_10_n02133161_1501.png
cornet-s,5,403,NaN,bear,bear,60,4883_ps_dnn_60_bear_10_n02134084_1112.png
cornet-s,5,404,NaN,bear,bear,60,4884_ps_dnn_60_bear_10_n02133161_431.png
cornet-s,5,405,NaN,bear,bear,60,4885_ps_dnn_60_bear_10_n02133161_7261.png
cornet-s,5,406,NaN,bear,bear,60,4886_ps_dnn_60_bear_10_n02134084_2598.png
cornet-s,5,407,NaN,bear,bear,60,4887_ps_dnn_60_bear_10_n02133161_3084.png
cornet-s,5,408,NaN,cat,bear,60,4888_ps_dnn_60_bear_10_n02132136_1053.png
cornet-s,5,409,NaN,elephant,bear,60,4889_ps_dnn_60_bear_10_n02134084_1048.png
cornet-s,5,410,NaN,bicycle,bear,60,4890_ps_dnn_60_bear_10_n02134418_4465.png
cornet-s,5,411,NaN,clock,boat,60,4891_ps_dnn_60_boat_10_n03344393_2536.png
cornet-s,5,412,NaN,boat,boat,60,4892_ps_dnn_60_boat_10_n02951358_4819.png
cornet-s,5,413,NaN,boat,boat,60,4893_ps_dnn_60_boat_10_n03344393_3773.png
cornet-s,5,414,NaN,boat,boat,60,4894_ps_dnn_60_boat_10_n03662601_35089.png
cornet-s,5,415,NaN,boat,boat,60,4895_ps_dnn_60_boat_10_n02951358_16217.png
cornet-s,5,416,NaN,boat,boat,60,4896_ps_dnn_60_boat_10_n04273569_395.png
cornet-s,5,417,NaN,boat,boat,60,4897_ps_dnn_60_boat_10_n03344393_6870.png
cornet-s,5,418,NaN,knife,boat,60,4898_ps_dnn_60_boat_10_n04273569_415.png
cornet-s,5,419,NaN,boat,boat,60,4899_ps_dnn_60_boat_10_n04273569_23140.png
cornet-s,5,420,NaN,oven,boat,60,4900_ps_dnn_60_boat_10_n02951358_20960.png
cornet-s,5,421,NaN,cat,cat,60,4901_ps_dnn_60_cat_10_n02125311_30932.png
cornet-s,5,422,NaN,cat,cat,60,4902_ps_dnn_60_cat_10_n02123597_14306.png
cornet-s,5,423,NaN,cat,cat,60,4903_ps_dnn_60_cat_10_n02123394_6602.png
cornet-s,5,424,NaN,cat,cat,60,4904_ps_dnn_60_cat_10_n02124075_7750.png
cornet-s,5,425,NaN,cat,cat,60,4905_ps_dnn_60_cat_10_n02123597_5697.png
cornet-s,5,426,NaN,cat,cat,60,4906_ps_dnn_60_cat_10_n02123045_5392.png
cornet-s,5,427,NaN,bicycle,cat,60,4907_ps_dnn_60_cat_10_n02123045_449.png
cornet-s,5,428,NaN,elephant,cat,60,4908_ps_dnn_60_cat_10_n02123045_10890.png
cornet-s,5,429,NaN,cat,cat,60,4909_ps_dnn_60_cat_10_n02124075_4357.png
cornet-s,5,430,NaN,cat,cat,60,4910_ps_dnn_60_cat_10_n02124075_2392.png
cornet-s,5,431,NaN,bottle,bottle,60,4911_ps_dnn_60_bottle_10_n04560804_10216.png
cornet-s,5,432,NaN,knife,bottle,60,4912_ps_dnn_60_bottle_10_n04591713_4291.png
cornet-s,5,433,NaN,bottle,bottle,60,4913_ps_dnn_60_bottle_10_n04557648_1136.png
cornet-s,5,434,NaN,bottle,bottle,60,4914_ps_dnn_60_bottle_10_n03983396_11463.png
cornet-s,5,435,NaN,bottle,bottle,60,4915_ps_dnn_60_bottle_10_n03983396_2643.png
cornet-s,5,436,NaN,bottle,bottle,60,4916_ps_dnn_60_bottle_10_n04591713_2245.png
cornet-s,5,437,NaN,bottle,bottle,60,4917_ps_dnn_60_bottle_10_n04591713_3153.png
cornet-s,5,438,NaN,bottle,bottle,60,4918_ps_dnn_60_bottle_10_n02823428_10235.png
cornet-s,5,439,NaN,bottle,bottle,60,4919_ps_dnn_60_bottle_10_n04560804_4704.png
cornet-s,5,440,NaN,bottle,bottle,60,4920_ps_dnn_60_bottle_10_n04560804_6357.png
cornet-s,5,441,NaN,truck,truck,60,4921_ps_dnn_60_truck_10_n04467665_76380.png
cornet-s,5,442,NaN,airplane,truck,60,4922_ps_dnn_60_truck_10_n04467665_67327.png
cornet-s,5,443,NaN,clock,truck,60,4923_ps_dnn_60_truck_10_n04467665_50746.png
cornet-s,5,444,NaN,boat,truck,60,4924_ps_dnn_60_truck_10_n03417042_13755.png
cornet-s,5,445,NaN,truck,truck,60,4925_ps_dnn_60_truck_10_n04467665_21594.png
cornet-s,5,446,NaN,boat,truck,60,4926_ps_dnn_60_truck_10_n04467665_28756.png
cornet-s,5,447,NaN,boat,truck,60,4927_ps_dnn_60_truck_10_n03796401_22775.png
cornet-s,5,448,NaN,truck,truck,60,4928_ps_dnn_60_truck_10_n03417042_4675.png
cornet-s,5,449,NaN,truck,truck,60,4929_ps_dnn_60_truck_10_n03417042_28610.png
cornet-s,5,450,NaN,truck,truck,60,4930_ps_dnn_60_truck_10_n04467665_79143.png
cornet-s,5,451,NaN,car,car,60,4931_ps_dnn_60_car_10_n04285008_14349.png
cornet-s,5,452,NaN,car,car,60,4932_ps_dnn_60_car_10_n02814533_93476.png
cornet-s,5,453,NaN,car,car,60,4933_ps_dnn_60_car_10_n02814533_29031.png
cornet-s,5,454,NaN,car,car,60,4934_ps_dnn_60_car_10_n04285008_7082.png
cornet-s,5,455,NaN,truck,car,60,4935_ps_dnn_60_car_10_n02814533_74921.png
cornet-s,5,456,NaN,truck,car,60,4936_ps_dnn_60_car_10_n03100240_14206.png
cornet-s,5,457,NaN,car,car,60,4937_ps_dnn_60_car_10_n03100240_22882.png
cornet-s,5,458,NaN,car,car,60,4938_ps_dnn_60_car_10_n03100240_6381.png
cornet-s,5,459,NaN,car,car,60,4939_ps_dnn_60_car_10_n04285008_2817.png
cornet-s,5,460,NaN,car,car,60,4940_ps_dnn_60_car_10_n03100240_2601.png
cornet-s,5,461,NaN,bird,bird,60,4941_ps_dnn_60_bird_10_n01833805_24956.png
cornet-s,5,462,NaN,bird,bird,60,4942_ps_dnn_60_bird_10_n01795545_18222.png
cornet-s,5,463,NaN,bird,bird,60,4943_ps_dnn_60_bird_10_n02056570_969.png
cornet-s,5,464,NaN,bird,bird,60,4944_ps_dnn_60_bird_10_n01534433_13947.png
cornet-s,5,465,NaN,bird,bird,60,4945_ps_dnn_60_bird_10_n02028035_34260.png
cornet-s,5,466,NaN,bird,bird,60,4946_ps_dnn_60_bird_10_n01818515_2743.png
cornet-s,5,467,NaN,cat,bird,60,4947_ps_dnn_60_bird_10_n01531178_15321.png
cornet-s,5,468,NaN,bird,bird,60,4948_ps_dnn_60_bird_10_n01843065_6044.png
cornet-s,5,469,NaN,elephant,bird,60,4949_ps_dnn_60_bird_10_n02009229_8082.png
cornet-s,5,470,NaN,bird,bird,60,4950_ps_dnn_60_bird_10_n02025239_2261.png
cornet-s,5,471,NaN,bear,dog,60,4951_ps_dnn_60_dog_10_n02110063_1615.png
cornet-s,5,472,NaN,dog,dog,60,4952_ps_dnn_60_dog_10_n02113023_12041.png
cornet-s,5,473,NaN,dog,dog,60,4953_ps_dnn_60_dog_10_n02088238_1333.png
cornet-s,5,474,NaN,elephant,dog,60,4954_ps_dnn_60_dog_10_n02105162_8379.png
cornet-s,5,475,NaN,dog,dog,60,4955_ps_dnn_60_dog_10_n02097130_3313.png
cornet-s,5,476,NaN,dog,dog,60,4956_ps_dnn_60_dog_10_n02098105_2634.png
cornet-s,5,477,NaN,dog,dog,60,4957_ps_dnn_60_dog_10_n02107574_1470.png
cornet-s,5,478,NaN,dog,dog,60,4958_ps_dnn_60_dog_10_n02088094_5825.png
cornet-s,5,479,NaN,dog,dog,60,4959_ps_dnn_60_dog_10_n02105251_6387.png
cornet-s,5,480,NaN,dog,dog,60,4960_ps_dnn_60_dog_10_n02101006_1817.png
cornet-s,5,481,NaN,oven,knife,90,4961_ps_dnn_90_knife_10_n03041632_13509.png
cornet-s,5,482,NaN,boat,knife,90,4962_ps_dnn_90_knife_10_n03041632_43634.png
cornet-s,5,483,NaN,knife,knife,90,4963_ps_dnn_90_knife_10_n03041632_56436.png
cornet-s,5,484,NaN,knife,knife,90,4964_ps_dnn_90_knife_10_n03041632_29355.png
cornet-s,5,485,NaN,knife,knife,90,4965_ps_dnn_90_knife_10_n03041632_11741.png
cornet-s,5,486,NaN,boat,knife,90,4966_ps_dnn_90_knife_10_n03041632_17285.png
cornet-s,5,487,NaN,knife,knife,90,4967_ps_dnn_90_knife_10_n03041632_92637.png
cornet-s,5,488,NaN,knife,knife,90,4968_ps_dnn_90_knife_10_n03041632_11285.png
cornet-s,5,489,NaN,knife,knife,90,4969_ps_dnn_90_knife_10_n03041632_10109.png
cornet-s,5,490,NaN,cat,knife,90,4970_ps_dnn_90_knife_10_n03041632_52929.png
cornet-s,5,491,NaN,knife,keyboard,90,4971_ps_dnn_90_keyboard_10_n03085013_24275.png
cornet-s,5,492,NaN,knife,keyboard,90,4972_ps_dnn_90_keyboard_10_n03085013_22929.png
cornet-s,5,493,NaN,clock,keyboard,90,4973_ps_dnn_90_keyboard_10_n03085013_23289.png
cornet-s,5,494,NaN,oven,keyboard,90,4974_ps_dnn_90_keyboard_10_n04505470_2378.png
cornet-s,5,495,NaN,oven,keyboard,90,4975_ps_dnn_90_keyboard_10_n04505470_183.png
cornet-s,5,496,NaN,knife,keyboard,90,4976_ps_dnn_90_keyboard_10_n03085013_974.png
cornet-s,5,497,NaN,keyboard,keyboard,90,4977_ps_dnn_90_keyboard_10_n03085013_23269.png
cornet-s,5,498,NaN,keyboard,keyboard,90,4978_ps_dnn_90_keyboard_10_n04505470_1416.png
cornet-s,5,499,NaN,oven,keyboard,90,4979_ps_dnn_90_keyboard_10_n04505470_1537.png
cornet-s,5,500,NaN,clock,keyboard,90,4980_ps_dnn_90_keyboard_10_n03085013_15887.png
cornet-s,5,501,NaN,elephant,elephant,90,4981_ps_dnn_90_elephant_10_n02504013_1502.png
cornet-s,5,502,NaN,elephant,elephant,90,4982_ps_dnn_90_elephant_10_n02504013_5734.png
cornet-s,5,503,NaN,elephant,elephant,90,4983_ps_dnn_90_elephant_10_n02504013_1500.png
cornet-s,5,504,NaN,elephant,elephant,90,4984_ps_dnn_90_elephant_10_n02504458_5827.png
cornet-s,5,505,NaN,elephant,elephant,90,4985_ps_dnn_90_elephant_10_n02504458_6135.png
cornet-s,5,506,NaN,elephant,elephant,90,4986_ps_dnn_90_elephant_10_n02504458_326.png
cornet-s,5,507,NaN,elephant,elephant,90,4987_ps_dnn_90_elephant_10_n02504458_5565.png
cornet-s,5,508,NaN,elephant,elephant,90,4988_ps_dnn_90_elephant_10_n02504458_5346.png
cornet-s,5,509,NaN,bear,elephant,90,4989_ps_dnn_90_elephant_10_n02504013_6243.png
cornet-s,5,510,NaN,bicycle,elephant,90,4990_ps_dnn_90_elephant_10_n02504458_4320.png
cornet-s,5,511,NaN,bicycle,bicycle,90,4991_ps_dnn_90_bicycle_10_n03792782_1116.png
cornet-s,5,512,NaN,bicycle,bicycle,90,4992_ps_dnn_90_bicycle_10_n03792782_51169.png
cornet-s,5,513,NaN,bicycle,bicycle,90,4993_ps_dnn_90_bicycle_10_n02835271_916.png
cornet-s,5,514,NaN,bicycle,bicycle,90,4994_ps_dnn_90_bicycle_10_n03792782_8716.png
cornet-s,5,515,NaN,bicycle,bicycle,90,4995_ps_dnn_90_bicycle_10_n02835271_2661.png
cornet-s,5,516,NaN,bicycle,bicycle,90,4996_ps_dnn_90_bicycle_10_n03792782_14476.png
cornet-s,5,517,NaN,bird,bicycle,90,4997_ps_dnn_90_bicycle_10_n03792782_14605.png
cornet-s,5,518,NaN,bicycle,bicycle,90,4998_ps_dnn_90_bicycle_10_n03792782_1472.png
cornet-s,5,519,NaN,bicycle,bicycle,90,4999_ps_dnn_90_bicycle_10_n02835271_25744.png
cornet-s,5,520,NaN,bicycle,bicycle,90,5000_ps_dnn_90_bicycle_10_n03792782_7787.png
cornet-s,5,521,NaN,boat,airplane,90,5001_ps_dnn_90_airplane_10_n02690373_3561.png
cornet-s,5,522,NaN,airplane,airplane,90,5002_ps_dnn_90_airplane_10_n02690373_3435.png
cornet-s,5,523,NaN,airplane,airplane,90,5003_ps_dnn_90_airplane_10_n02690373_1363.png
cornet-s,5,524,NaN,airplane,airplane,90,5004_ps_dnn_90_airplane_10_n02690373_5462.png
cornet-s,5,525,NaN,airplane,airplane,90,5005_ps_dnn_90_airplane_10_n02690373_8123.png
cornet-s,5,526,NaN,airplane,airplane,90,5006_ps_dnn_90_airplane_10_n02690373_9423.png
cornet-s,5,527,NaN,airplane,airplane,90,5007_ps_dnn_90_airplane_10_n02690373_10931.png
cornet-s,5,528,NaN,airplane,airplane,90,5008_ps_dnn_90_airplane_10_n02690373_4608.png
cornet-s,5,529,NaN,airplane,airplane,90,5009_ps_dnn_90_airplane_10_n02690373_2248.png
cornet-s,5,530,NaN,boat,airplane,90,5010_ps_dnn_90_airplane_10_n02690373_13078.png
cornet-s,5,531,NaN,oven,clock,90,5011_ps_dnn_90_clock_10_n03196217_9589.png
cornet-s,5,532,NaN,clock,clock,90,5012_ps_dnn_90_clock_10_n02708093_6912.png
cornet-s,5,533,NaN,clock,clock,90,5013_ps_dnn_90_clock_10_n04548280_548.png
cornet-s,5,534,NaN,clock,clock,90,5014_ps_dnn_90_clock_10_n04548280_9755.png
cornet-s,5,535,NaN,clock,clock,90,5015_ps_dnn_90_clock_10_n04548280_8657.png
cornet-s,5,536,NaN,clock,clock,90,5016_ps_dnn_90_clock_10_n04548280_8925.png
cornet-s,5,537,NaN,clock,clock,90,5017_ps_dnn_90_clock_10_n02708093_3751.png
cornet-s,5,538,NaN,clock,clock,90,5018_ps_dnn_90_clock_10_n02708093_1384.png
cornet-s,5,539,NaN,clock,clock,90,5019_ps_dnn_90_clock_10_n03196217_7313.png
cornet-s,5,540,NaN,clock,clock,90,5020_ps_dnn_90_clock_10_n04548280_286.png
cornet-s,5,541,NaN,chair,oven,90,5021_ps_dnn_90_oven_10_n04111531_1599.png
cornet-s,5,542,NaN,cat,oven,90,5022_ps_dnn_90_oven_10_n04111531_7283.png
cornet-s,5,543,NaN,bicycle,oven,90,5023_ps_dnn_90_oven_10_n04111531_2051.png
cornet-s,5,544,NaN,bear,oven,90,5024_ps_dnn_90_oven_10_n04111531_9344.png
cornet-s,5,545,NaN,bicycle,oven,90,5025_ps_dnn_90_oven_10_n04111531_7667.png
cornet-s,5,546,NaN,boat,oven,90,5026_ps_dnn_90_oven_10_n04111531_9297.png
cornet-s,5,547,NaN,clock,oven,90,5027_ps_dnn_90_oven_10_n04111531_15852.png
cornet-s,5,548,NaN,oven,oven,90,5028_ps_dnn_90_oven_10_n04111531_6181.png
cornet-s,5,549,NaN,oven,oven,90,5029_ps_dnn_90_oven_10_n04111531_1752.png
cornet-s,5,550,NaN,oven,oven,90,5030_ps_dnn_90_oven_10_n04111531_9490.png
cornet-s,5,551,NaN,clock,chair,90,5031_ps_dnn_90_chair_10_n02791124_323.png
cornet-s,5,552,NaN,boat,chair,90,5032_ps_dnn_90_chair_10_n04099969_14056.png
cornet-s,5,553,NaN,chair,chair,90,5033_ps_dnn_90_chair_10_n03376595_19348.png
cornet-s,5,554,NaN,cat,chair,90,5034_ps_dnn_90_chair_10_n04429376_2936.png
cornet-s,5,555,NaN,chair,chair,90,5035_ps_dnn_90_chair_10_n04429376_30704.png
cornet-s,5,556,NaN,chair,chair,90,5036_ps_dnn_90_chair_10_n04429376_9388.png
cornet-s,5,557,NaN,chair,chair,90,5037_ps_dnn_90_chair_10_n03376595_2984.png
cornet-s,5,558,NaN,chair,chair,90,5038_ps_dnn_90_chair_10_n03376595_2107.png
cornet-s,5,559,NaN,clock,chair,90,5039_ps_dnn_90_chair_10_n04099969_9271.png
cornet-s,5,560,NaN,chair,chair,90,5040_ps_dnn_90_chair_10_n02791124_4566.png
cornet-s,5,561,NaN,bear,bear,90,5041_ps_dnn_90_bear_10_n02133161_1715.png
cornet-s,5,562,NaN,dog,bear,90,5042_ps_dnn_90_bear_10_n02133161_654.png
cornet-s,5,563,NaN,bicycle,bear,90,5043_ps_dnn_90_bear_10_n02133161_4146.png
cornet-s,5,564,NaN,bicycle,bear,90,5044_ps_dnn_90_bear_10_n02134084_25894.png
cornet-s,5,565,NaN,bear,bear,90,5045_ps_dnn_90_bear_10_n02134084_1821.png
cornet-s,5,566,NaN,boat,bear,90,5046_ps_dnn_90_bear_10_n02132136_21557.png
cornet-s,5,567,NaN,elephant,bear,90,5047_ps_dnn_90_bear_10_n02132136_2815.png
cornet-s,5,568,NaN,boat,bear,90,5048_ps_dnn_90_bear_10_n02133161_5164.png
cornet-s,5,569,NaN,bear,bear,90,5049_ps_dnn_90_bear_10_n02134418_4128.png
cornet-s,5,570,NaN,bear,bear,90,5050_ps_dnn_90_bear_10_n02132136_2359.png
cornet-s,5,571,NaN,boat,boat,90,5051_ps_dnn_90_boat_10_n04273569_5593.png
cornet-s,5,572,NaN,boat,boat,90,5052_ps_dnn_90_boat_10_n04273569_21565.png
cornet-s,5,573,NaN,boat,boat,90,5053_ps_dnn_90_boat_10_n03344393_5874.png
cornet-s,5,574,NaN,boat,boat,90,5054_ps_dnn_90_boat_10_n04612504_7388.png
cornet-s,5,575,NaN,boat,boat,90,5055_ps_dnn_90_boat_10_n04612504_5650.png
cornet-s,5,576,NaN,boat,boat,90,5056_ps_dnn_90_boat_10_n03344393_928.png
cornet-s,5,577,NaN,boat,boat,90,5057_ps_dnn_90_boat_10_n02951358_4216.png
cornet-s,5,578,NaN,clock,boat,90,5058_ps_dnn_90_boat_10_n03662601_7847.png
cornet-s,5,579,NaN,boat,boat,90,5059_ps_dnn_90_boat_10_n03662601_23744.png
cornet-s,5,580,NaN,oven,boat,90,5060_ps_dnn_90_boat_10_n03662601_1937.png
cornet-s,5,581,NaN,cat,cat,90,5061_ps_dnn_90_cat_10_n02123597_854.png
cornet-s,5,582,NaN,dog,cat,90,5062_ps_dnn_90_cat_10_n02123394_4713.png
cornet-s,5,583,NaN,cat,cat,90,5063_ps_dnn_90_cat_10_n02123159_1253.png
cornet-s,5,584,NaN,elephant,cat,90,5064_ps_dnn_90_cat_10_n02125311_47759.png
cornet-s,5,585,NaN,cat,cat,90,5065_ps_dnn_90_cat_10_n02123394_499.png
cornet-s,5,586,NaN,knife,cat,90,5066_ps_dnn_90_cat_10_n02124075_8528.png
cornet-s,5,587,NaN,cat,cat,90,5067_ps_dnn_90_cat_10_n02125311_29295.png
cornet-s,5,588,NaN,elephant,cat,90,5068_ps_dnn_90_cat_10_n02123045_4181.png
cornet-s,5,589,NaN,cat,cat,90,5069_ps_dnn_90_cat_10_n02123394_6710.png
cornet-s,5,590,NaN,clock,cat,90,5070_ps_dnn_90_cat_10_n02124075_12316.png
cornet-s,5,591,NaN,bottle,bottle,90,5071_ps_dnn_90_bottle_10_n04579145_4605.png
cornet-s,5,592,NaN,cat,bottle,90,5072_ps_dnn_90_bottle_10_n03937543_5711.png
cornet-s,5,593,NaN,cat,bottle,90,5073_ps_dnn_90_bottle_10_n03937543_1117.png
cornet-s,5,594,NaN,bottle,bottle,90,5074_ps_dnn_90_bottle_10_n04557648_16542.png
cornet-s,5,595,NaN,knife,bottle,90,5075_ps_dnn_90_bottle_10_n04591713_1164.png
cornet-s,5,596,NaN,bottle,bottle,90,5076_ps_dnn_90_bottle_10_n03937543_8030.png
cornet-s,5,597,NaN,bottle,bottle,90,5077_ps_dnn_90_bottle_10_n04579145_5587.png
cornet-s,5,598,NaN,knife,bottle,90,5078_ps_dnn_90_bottle_10_n03983396_2135.png
cornet-s,5,599,NaN,chair,bottle,90,5079_ps_dnn_90_bottle_10_n04560804_13927.png
cornet-s,5,600,NaN,bottle,bottle,90,5080_ps_dnn_90_bottle_10_n04557648_2363.png
cornet-s,5,601,NaN,truck,truck,90,5081_ps_dnn_90_truck_10_n03796401_599.png
cornet-s,5,602,NaN,bicycle,truck,90,5082_ps_dnn_90_truck_10_n03417042_6823.png
cornet-s,5,603,NaN,truck,truck,90,5083_ps_dnn_90_truck_10_n03417042_7209.png
cornet-s,5,604,NaN,truck,truck,90,5084_ps_dnn_90_truck_10_n04467665_22914.png
cornet-s,5,605,NaN,airplane,truck,90,5085_ps_dnn_90_truck_10_n04467665_15019.png
cornet-s,5,606,NaN,boat,truck,90,5086_ps_dnn_90_truck_10_n03417042_29434.png
cornet-s,5,607,NaN,truck,truck,90,5087_ps_dnn_90_truck_10_n03417042_10117.png
cornet-s,5,608,NaN,oven,truck,90,5088_ps_dnn_90_truck_10_n04467665_9894.png
cornet-s,5,609,NaN,clock,truck,90,5089_ps_dnn_90_truck_10_n03417042_27675.png
cornet-s,5,610,NaN,boat,truck,90,5090_ps_dnn_90_truck_10_n03417042_5757.png
cornet-s,5,611,NaN,car,car,90,5091_ps_dnn_90_car_10_n03100240_9408.png
cornet-s,5,612,NaN,knife,car,90,5092_ps_dnn_90_car_10_n02814533_39994.png
cornet-s,5,613,NaN,truck,car,90,5093_ps_dnn_90_car_10_n02814533_54380.png
cornet-s,5,614,NaN,car,car,90,5094_ps_dnn_90_car_10_n04285008_13722.png
cornet-s,5,615,NaN,car,car,90,5095_ps_dnn_90_car_10_n04285008_14273.png
cornet-s,5,616,NaN,car,car,90,5096_ps_dnn_90_car_10_n03100240_11553.png
cornet-s,5,617,NaN,cat,car,90,5097_ps_dnn_90_car_10_n03100240_1696.png
cornet-s,5,618,NaN,boat,car,90,5098_ps_dnn_90_car_10_n04285008_10565.png
cornet-s,5,619,NaN,bicycle,car,90,5099_ps_dnn_90_car_10_n04285008_4336.png
cornet-s,5,620,NaN,boat,car,90,5100_ps_dnn_90_car_10_n03100240_1836.png
cornet-s,5,621,NaN,elephant,bird,90,5101_ps_dnn_90_bird_10_n01829413_2673.png
cornet-s,5,622,NaN,bear,bird,90,5102_ps_dnn_90_bird_10_n01514859_6464.png
cornet-s,5,623,NaN,elephant,bird,90,5103_ps_dnn_90_bird_10_n01817953_13771.png
cornet-s,5,624,NaN,cat,bird,90,5104_ps_dnn_90_bird_10_n02018207_7989.png
cornet-s,5,625,NaN,knife,bird,90,5105_ps_dnn_90_bird_10_n02056570_11140.png
cornet-s,5,626,NaN,elephant,bird,90,5106_ps_dnn_90_bird_10_n01818515_31737.png
cornet-s,5,627,NaN,bear,bird,90,5107_ps_dnn_90_bird_10_n02007558_8176.png
cornet-s,5,628,NaN,bird,bird,90,5108_ps_dnn_90_bird_10_n01616318_5314.png
cornet-s,5,629,NaN,bird,bird,90,5109_ps_dnn_90_bird_10_n02009912_317.png
cornet-s,5,630,NaN,bird,bird,90,5110_ps_dnn_90_bird_10_n01829413_1307.png
cornet-s,5,631,NaN,dog,dog,90,5111_ps_dnn_90_dog_10_n02097209_3168.png
cornet-s,5,632,NaN,cat,dog,90,5112_ps_dnn_90_dog_10_n02109961_24899.png
cornet-s,5,633,NaN,bear,dog,90,5113_ps_dnn_90_dog_10_n02107908_8819.png
cornet-s,5,634,NaN,dog,dog,90,5114_ps_dnn_90_dog_10_n02089867_7231.png
cornet-s,5,635,NaN,knife,dog,90,5115_ps_dnn_90_dog_10_n02108422_1899.png
cornet-s,5,636,NaN,cat,dog,90,5116_ps_dnn_90_dog_10_n02104365_177.png
cornet-s,5,637,NaN,cat,dog,90,5117_ps_dnn_90_dog_10_n02110958_7801.png
cornet-s,5,638,NaN,airplane,dog,90,5118_ps_dnn_90_dog_10_n02091831_3713.png
cornet-s,5,639,NaN,cat,dog,90,5119_ps_dnn_90_dog_10_n02091244_4109.png
cornet-s,5,640,NaN,dog,dog,90,5120_ps_dnn_90_dog_10_n02101388_26105.png
cornet-s,5,641,NaN,cat,knife,120,5121_ps_dnn_120_knife_10_n03041632_102887.png
cornet-s,5,642,NaN,knife,knife,120,5122_ps_dnn_120_knife_10_n03041632_4305.png
cornet-s,5,643,NaN,cat,knife,120,5123_ps_dnn_120_knife_10_n03041632_18766.png
cornet-s,5,644,NaN,knife,knife,120,5124_ps_dnn_120_knife_10_n03041632_36277.png
cornet-s,5,645,NaN,bear,knife,120,5125_ps_dnn_120_knife_10_n03041632_26236.png
cornet-s,5,646,NaN,bear,knife,120,5126_ps_dnn_120_knife_10_n03041632_1143.png
cornet-s,5,647,NaN,bicycle,knife,120,5127_ps_dnn_120_knife_10_n03041632_105080.png
cornet-s,5,648,NaN,knife,knife,120,5128_ps_dnn_120_knife_10_n03041632_2630.png
cornet-s,5,649,NaN,oven,knife,120,5129_ps_dnn_120_knife_10_n03041632_131.png
cornet-s,5,650,NaN,bicycle,knife,120,5130_ps_dnn_120_knife_10_n03041632_8321.png
cornet-s,5,651,NaN,cat,keyboard,120,5131_ps_dnn_120_keyboard_10_n04505470_326.png
cornet-s,5,652,NaN,chair,keyboard,120,5132_ps_dnn_120_keyboard_10_n04505470_3391.png
cornet-s,5,653,NaN,knife,keyboard,120,5133_ps_dnn_120_keyboard_10_n03085013_14279.png
cornet-s,5,654,NaN,keyboard,keyboard,120,5134_ps_dnn_120_keyboard_10_n04505470_3234.png
cornet-s,5,655,NaN,knife,keyboard,120,5135_ps_dnn_120_keyboard_10_n04505470_3659.png
cornet-s,5,656,NaN,boat,keyboard,120,5136_ps_dnn_120_keyboard_10_n03085013_23885.png
cornet-s,5,657,NaN,clock,keyboard,120,5137_ps_dnn_120_keyboard_10_n03085013_23291.png
cornet-s,5,658,NaN,boat,keyboard,120,5138_ps_dnn_120_keyboard_10_n03085013_21488.png
cornet-s,5,659,NaN,dog,keyboard,120,5139_ps_dnn_120_keyboard_10_n03085013_25671.png
cornet-s,5,660,NaN,chair,keyboard,120,5140_ps_dnn_120_keyboard_10_n04505470_4166.png
cornet-s,5,661,NaN,elephant,elephant,120,5141_ps_dnn_120_elephant_10_n02504458_133.png
cornet-s,5,662,NaN,bear,elephant,120,5142_ps_dnn_120_elephant_10_n02504458_10603.png
cornet-s,5,663,NaN,knife,elephant,120,5143_ps_dnn_120_elephant_10_n02504458_6079.png
cornet-s,5,664,NaN,bear,elephant,120,5144_ps_dnn_120_elephant_10_n02504458_6729.png
cornet-s,5,665,NaN,boat,elephant,120,5145_ps_dnn_120_elephant_10_n02504458_1138.png
cornet-s,5,666,NaN,airplane,elephant,120,5146_ps_dnn_120_elephant_10_n02504458_3381.png
cornet-s,5,667,NaN,bicycle,elephant,120,5147_ps_dnn_120_elephant_10_n02504013_1185.png
cornet-s,5,668,NaN,bear,elephant,120,5148_ps_dnn_120_elephant_10_n02504013_6619.png
cornet-s,5,669,NaN,knife,elephant,120,5149_ps_dnn_120_elephant_10_n02504458_12439.png
cornet-s,5,670,NaN,knife,elephant,120,5150_ps_dnn_120_elephant_10_n02504458_800.png
cornet-s,5,671,NaN,knife,bicycle,120,5151_ps_dnn_120_bicycle_10_n03792782_18964.png
cornet-s,5,672,NaN,bicycle,bicycle,120,5152_ps_dnn_120_bicycle_10_n02835271_1851.png
cornet-s,5,673,NaN,bear,bicycle,120,5153_ps_dnn_120_bicycle_10_n02835271_5861.png
cornet-s,5,674,NaN,bicycle,bicycle,120,5154_ps_dnn_120_bicycle_10_n02835271_22061.png
cornet-s,5,675,NaN,bear,bicycle,120,5155_ps_dnn_120_bicycle_10_n02835271_20959.png
cornet-s,5,676,NaN,elephant,bicycle,120,5156_ps_dnn_120_bicycle_10_n03792782_9280.png
cornet-s,5,677,NaN,clock,bicycle,120,5157_ps_dnn_120_bicycle_10_n02835271_1536.png
cornet-s,5,678,NaN,knife,bicycle,120,5158_ps_dnn_120_bicycle_10_n03792782_19295.png
cornet-s,5,679,NaN,chair,bicycle,120,5159_ps_dnn_120_bicycle_10_n02835271_22206.png
cornet-s,5,680,NaN,chair,bicycle,120,5160_ps_dnn_120_bicycle_10_n03792782_13110.png
cornet-s,5,681,NaN,knife,airplane,120,5161_ps_dnn_120_airplane_10_n02690373_2293.png
cornet-s,5,682,NaN,knife,airplane,120,5162_ps_dnn_120_airplane_10_n02690373_5870.png
cornet-s,5,683,NaN,airplane,airplane,120,5163_ps_dnn_120_airplane_10_n02690373_3139.png
cornet-s,5,684,NaN,bird,airplane,120,5164_ps_dnn_120_airplane_10_n02690373_5082.png
cornet-s,5,685,NaN,airplane,airplane,120,5165_ps_dnn_120_airplane_10_n02690373_2075.png
cornet-s,5,686,NaN,boat,airplane,120,5166_ps_dnn_120_airplane_10_n02690373_5029.png
cornet-s,5,687,NaN,boat,airplane,120,5167_ps_dnn_120_airplane_10_n02690373_18479.png
cornet-s,5,688,NaN,cat,airplane,120,5168_ps_dnn_120_airplane_10_n02690373_5055.png
cornet-s,5,689,NaN,boat,airplane,120,5169_ps_dnn_120_airplane_10_n02690373_6319.png
cornet-s,5,690,NaN,oven,airplane,120,5170_ps_dnn_120_airplane_10_n02690373_3096.png
cornet-s,5,691,NaN,clock,clock,120,5171_ps_dnn_120_clock_10_n04548280_7490.png
cornet-s,5,692,NaN,clock,clock,120,5172_ps_dnn_120_clock_10_n03196217_7012.png
cornet-s,5,693,NaN,knife,clock,120,5173_ps_dnn_120_clock_10_n04548280_4181.png
cornet-s,5,694,NaN,clock,clock,120,5174_ps_dnn_120_clock_10_n04548280_3098.png
cornet-s,5,695,NaN,knife,clock,120,5175_ps_dnn_120_clock_10_n04548280_532.png
cornet-s,5,696,NaN,clock,clock,120,5176_ps_dnn_120_clock_10_n03196217_743.png
cornet-s,5,697,NaN,knife,clock,120,5177_ps_dnn_120_clock_10_n02708093_8309.png
cornet-s,5,698,NaN,boat,clock,120,5178_ps_dnn_120_clock_10_n03196217_6741.png
cornet-s,5,699,NaN,clock,clock,120,5179_ps_dnn_120_clock_10_n04548280_6814.png
cornet-s,5,700,NaN,knife,clock,120,5180_ps_dnn_120_clock_10_n04548280_607.png
cornet-s,5,701,NaN,bicycle,oven,120,5181_ps_dnn_120_oven_10_n04111531_1004.png
cornet-s,5,702,NaN,cat,oven,120,5182_ps_dnn_120_oven_10_n04111531_11470.png
cornet-s,5,703,NaN,bear,oven,120,5183_ps_dnn_120_oven_10_n04111531_16463.png
cornet-s,5,704,NaN,clock,oven,120,5184_ps_dnn_120_oven_10_n04111531_13391.png
cornet-s,5,705,NaN,knife,oven,120,5185_ps_dnn_120_oven_10_n04111531_10313.png
cornet-s,5,706,NaN,oven,oven,120,5186_ps_dnn_120_oven_10_n04111531_14876.png
cornet-s,5,707,NaN,bicycle,oven,120,5187_ps_dnn_120_oven_10_n04111531_92.png
cornet-s,5,708,NaN,knife,oven,120,5188_ps_dnn_120_oven_10_n04111531_2133.png
cornet-s,5,709,NaN,bear,oven,120,5189_ps_dnn_120_oven_10_n04111531_669.png
cornet-s,5,710,NaN,elephant,oven,120,5190_ps_dnn_120_oven_10_n04111531_15296.png
cornet-s,5,711,NaN,cat,chair,120,5191_ps_dnn_120_chair_10_n04099969_8873.png
cornet-s,5,712,NaN,cat,chair,120,5192_ps_dnn_120_chair_10_n03376595_7699.png
cornet-s,5,713,NaN,knife,chair,120,5193_ps_dnn_120_chair_10_n04429376_48665.png
cornet-s,5,714,NaN,bear,chair,120,5194_ps_dnn_120_chair_10_n02791124_12591.png
cornet-s,5,715,NaN,knife,chair,120,5195_ps_dnn_120_chair_10_n04099969_6241.png
cornet-s,5,716,NaN,bird,chair,120,5196_ps_dnn_120_chair_10_n02791124_4437.png
cornet-s,5,717,NaN,bicycle,chair,120,5197_ps_dnn_120_chair_10_n02791124_3476.png
cornet-s,5,718,NaN,clock,chair,120,5198_ps_dnn_120_chair_10_n04099969_2523.png
cornet-s,5,719,NaN,elephant,chair,120,5199_ps_dnn_120_chair_10_n02791124_11404.png
cornet-s,5,720,NaN,knife,chair,120,5200_ps_dnn_120_chair_10_n04429376_15847.png
cornet-s,5,721,NaN,boat,bear,120,5201_ps_dnn_120_bear_10_n02133161_16808.png
cornet-s,5,722,NaN,knife,bear,120,5202_ps_dnn_120_bear_10_n02134418_559.png
cornet-s,5,723,NaN,bear,bear,120,5203_ps_dnn_120_bear_10_n02132136_16330.png
cornet-s,5,724,NaN,elephant,bear,120,5204_ps_dnn_120_bear_10_n02132136_10979.png
cornet-s,5,725,NaN,bear,bear,120,5205_ps_dnn_120_bear_10_n02134418_10715.png
cornet-s,5,726,NaN,boat,bear,120,5206_ps_dnn_120_bear_10_n02133161_15593.png
cornet-s,5,727,NaN,bear,bear,120,5207_ps_dnn_120_bear_10_n02134418_1425.png
cornet-s,5,728,NaN,cat,bear,120,5208_ps_dnn_120_bear_10_n02134084_19775.png
cornet-s,5,729,NaN,elephant,bear,120,5209_ps_dnn_120_bear_10_n02133161_8493.png
cornet-s,5,730,NaN,cat,bear,120,5210_ps_dnn_120_bear_10_n02134084_15118.png
cornet-s,5,731,NaN,boat,boat,120,5211_ps_dnn_120_boat_10_n04273569_1423.png
cornet-s,5,732,NaN,boat,boat,120,5212_ps_dnn_120_boat_10_n04273569_27387.png
cornet-s,5,733,NaN,knife,boat,120,5213_ps_dnn_120_boat_10_n03662601_6893.png
cornet-s,5,734,NaN,bicycle,boat,120,5214_ps_dnn_120_boat_10_n02951358_13561.png
cornet-s,5,735,NaN,boat,boat,120,5215_ps_dnn_120_boat_10_n02951358_7923.png
cornet-s,5,736,NaN,boat,boat,120,5216_ps_dnn_120_boat_10_n04273569_5426.png
cornet-s,5,737,NaN,knife,boat,120,5217_ps_dnn_120_boat_10_n03662601_16825.png
cornet-s,5,738,NaN,boat,boat,120,5218_ps_dnn_120_boat_10_n02951358_1116.png
cornet-s,5,739,NaN,boat,boat,120,5219_ps_dnn_120_boat_10_n03344393_9661.png
cornet-s,5,740,NaN,bicycle,boat,120,5220_ps_dnn_120_boat_10_n03344393_2148.png
cornet-s,5,741,NaN,cat,cat,120,5221_ps_dnn_120_cat_10_n02123045_13039.png
cornet-s,5,742,NaN,clock,cat,120,5222_ps_dnn_120_cat_10_n02123597_6405.png
cornet-s,5,743,NaN,knife,cat,120,5223_ps_dnn_120_cat_10_n02125311_22340.png
cornet-s,5,744,NaN,cat,cat,120,5224_ps_dnn_120_cat_10_n02123394_537.png
cornet-s,5,745,NaN,cat,cat,120,5225_ps_dnn_120_cat_10_n02123045_6286.png
cornet-s,5,746,NaN,bear,cat,120,5226_ps_dnn_120_cat_10_n02124075_5231.png
cornet-s,5,747,NaN,chair,cat,120,5227_ps_dnn_120_cat_10_n02123159_7974.png
cornet-s,5,748,NaN,cat,cat,120,5228_ps_dnn_120_cat_10_n02123045_2852.png
cornet-s,5,749,NaN,cat,cat,120,5229_ps_dnn_120_cat_10_n02123597_4910.png
cornet-s,5,750,NaN,cat,cat,120,5230_ps_dnn_120_cat_10_n02123045_1812.png
cornet-s,5,751,NaN,boat,bottle,120,5231_ps_dnn_120_bottle_10_n03937543_3108.png
cornet-s,5,752,NaN,cat,bottle,120,5232_ps_dnn_120_bottle_10_n03937543_1053.png
cornet-s,5,753,NaN,knife,bottle,120,5233_ps_dnn_120_bottle_10_n04591713_5366.png
cornet-s,5,754,NaN,cat,bottle,120,5234_ps_dnn_120_bottle_10_n03937543_5428.png
cornet-s,5,755,NaN,cat,bottle,120,5235_ps_dnn_120_bottle_10_n02823428_1527.png
cornet-s,5,756,NaN,chair,bottle,120,5236_ps_dnn_120_bottle_10_n03983396_2115.png
cornet-s,5,757,NaN,knife,bottle,120,5237_ps_dnn_120_bottle_10_n03983396_11601.png
cornet-s,5,758,NaN,elephant,bottle,120,5238_ps_dnn_120_bottle_10_n04579145_260.png
cornet-s,5,759,NaN,knife,bottle,120,5239_ps_dnn_120_bottle_10_n03983396_19926.png
cornet-s,5,760,NaN,knife,bottle,120,5240_ps_dnn_120_bottle_10_n04560804_7375.png
cornet-s,5,761,NaN,bear,truck,120,5241_ps_dnn_120_truck_10_n04467665_68764.png
cornet-s,5,762,NaN,knife,truck,120,5242_ps_dnn_120_truck_10_n03417042_3101.png
cornet-s,5,763,NaN,clock,truck,120,5243_ps_dnn_120_truck_10_n03796401_4168.png
cornet-s,5,764,NaN,bicycle,truck,120,5244_ps_dnn_120_truck_10_n04467665_42823.png
cornet-s,5,765,NaN,dog,truck,120,5245_ps_dnn_120_truck_10_n03417042_11527.png
cornet-s,5,766,NaN,clock,truck,120,5246_ps_dnn_120_truck_10_n03796401_1023.png
cornet-s,5,767,NaN,knife,truck,120,5247_ps_dnn_120_truck_10_n04467665_28424.png
cornet-s,5,768,NaN,knife,truck,120,5248_ps_dnn_120_truck_10_n03796401_3273.png
cornet-s,5,769,NaN,knife,truck,120,5249_ps_dnn_120_truck_10_n04467665_22879.png
cornet-s,5,770,NaN,bear,truck,120,5250_ps_dnn_120_truck_10_n03417042_6646.png
cornet-s,5,771,NaN,bicycle,car,120,5251_ps_dnn_120_car_10_n03100240_9077.png
cornet-s,5,772,NaN,cat,car,120,5252_ps_dnn_120_car_10_n04285008_3015.png
cornet-s,5,773,NaN,cat,car,120,5253_ps_dnn_120_car_10_n04285008_17149.png
cornet-s,5,774,NaN,boat,car,120,5254_ps_dnn_120_car_10_n03100240_9470.png
cornet-s,5,775,NaN,clock,car,120,5255_ps_dnn_120_car_10_n02814533_1754.png
cornet-s,5,776,NaN,cat,car,120,5256_ps_dnn_120_car_10_n03100240_3543.png
cornet-s,5,777,NaN,clock,car,120,5257_ps_dnn_120_car_10_n02814533_49380.png
cornet-s,5,778,NaN,boat,car,120,5258_ps_dnn_120_car_10_n03100240_2335.png
cornet-s,5,779,NaN,bicycle,car,120,5259_ps_dnn_120_car_10_n02814533_14484.png
cornet-s,5,780,NaN,bear,car,120,5260_ps_dnn_120_car_10_n02814533_31170.png
cornet-s,5,781,NaN,bird,bird,120,5261_ps_dnn_120_bird_10_n01833805_7812.png
cornet-s,5,782,NaN,dog,bird,120,5262_ps_dnn_120_bird_10_n01796340_27329.png
cornet-s,5,783,NaN,elephant,bird,120,5263_ps_dnn_120_bird_10_n02051845_9653.png
cornet-s,5,784,NaN,knife,bird,120,5264_ps_dnn_120_bird_10_n02009912_36443.png
cornet-s,5,785,NaN,elephant,bird,120,5265_ps_dnn_120_bird_10_n02027492_7198.png
cornet-s,5,786,NaN,elephant,bird,120,5266_ps_dnn_120_bird_10_n02028035_26656.png
cornet-s,5,787,NaN,bear,bird,120,5267_ps_dnn_120_bird_10_n02011460_2466.png
cornet-s,5,788,NaN,bear,bird,120,5268_ps_dnn_120_bird_10_n02002724_585.png
cornet-s,5,789,NaN,cat,bird,120,5269_ps_dnn_120_bird_10_n02007558_6572.png
cornet-s,5,790,NaN,bear,bird,120,5270_ps_dnn_120_bird_10_n02011460_18684.png
cornet-s,5,791,NaN,elephant,dog,120,5271_ps_dnn_120_dog_10_n02093754_4854.png
cornet-s,5,792,NaN,knife,dog,120,5272_ps_dnn_120_dog_10_n02092339_125.png
cornet-s,5,793,NaN,airplane,dog,120,5273_ps_dnn_120_dog_10_n02106166_16999.png
cornet-s,5,794,NaN,elephant,dog,120,5274_ps_dnn_120_dog_10_n02107908_10445.png
cornet-s,5,795,NaN,knife,dog,120,5275_ps_dnn_120_dog_10_n02094258_1943.png
cornet-s,5,796,NaN,knife,dog,120,5276_ps_dnn_120_dog_10_n02094114_4875.png
cornet-s,5,797,NaN,bicycle,dog,120,5277_ps_dnn_120_dog_10_n02086646_1952.png
cornet-s,5,798,NaN,bear,dog,120,5278_ps_dnn_120_dog_10_n02106550_9599.png
cornet-s,5,799,NaN,elephant,dog,120,5279_ps_dnn_120_dog_10_n02105855_15035.png
cornet-s,5,800,NaN,knife,dog,120,5280_ps_dnn_120_dog_10_n02091635_4679.png
cornet-s,5,801,NaN,knife,knife,150,5281_ps_dnn_150_knife_10_n03041632_45569.png
cornet-s,5,802,NaN,knife,knife,150,5282_ps_dnn_150_knife_10_n03041632_383.png
cornet-s,5,803,NaN,knife,knife,150,5283_ps_dnn_150_knife_10_n03041632_18748.png
cornet-s,5,804,NaN,knife,knife,150,5284_ps_dnn_150_knife_10_n03041632_25603.png
cornet-s,5,805,NaN,knife,knife,150,5285_ps_dnn_150_knife_10_n03041632_6446.png
cornet-s,5,806,NaN,knife,knife,150,5286_ps_dnn_150_knife_10_n03041632_15754.png
cornet-s,5,807,NaN,cat,knife,150,5287_ps_dnn_150_knife_10_n03041632_86338.png
cornet-s,5,808,NaN,clock,knife,150,5288_ps_dnn_150_knife_10_n03041632_26053.png
cornet-s,5,809,NaN,bear,knife,150,5289_ps_dnn_150_knife_10_n03041632_91582.png
cornet-s,5,810,NaN,knife,knife,150,5290_ps_dnn_150_knife_10_n03041632_38996.png
cornet-s,5,811,NaN,clock,keyboard,150,5291_ps_dnn_150_keyboard_10_n04505470_930.png
cornet-s,5,812,NaN,knife,keyboard,150,5292_ps_dnn_150_keyboard_10_n04505470_2358.png
cornet-s,5,813,NaN,boat,keyboard,150,5293_ps_dnn_150_keyboard_10_n04505470_4944.png
cornet-s,5,814,NaN,knife,keyboard,150,5294_ps_dnn_150_keyboard_10_n03085013_7091.png
cornet-s,5,815,NaN,knife,keyboard,150,5295_ps_dnn_150_keyboard_10_n03085013_21971.png
cornet-s,5,816,NaN,knife,keyboard,150,5296_ps_dnn_150_keyboard_10_n03085013_24087.png
cornet-s,5,817,NaN,knife,keyboard,150,5297_ps_dnn_150_keyboard_10_n04505470_1440.png
cornet-s,5,818,NaN,clock,keyboard,150,5298_ps_dnn_150_keyboard_10_n04505470_4748.png
cornet-s,5,819,NaN,bear,keyboard,150,5299_ps_dnn_150_keyboard_10_n03085013_18685.png
cornet-s,5,820,NaN,cat,keyboard,150,5300_ps_dnn_150_keyboard_10_n03085013_22698.png
cornet-s,5,821,NaN,bear,elephant,150,5301_ps_dnn_150_elephant_10_n02504013_6999.png
cornet-s,5,822,NaN,knife,elephant,150,5302_ps_dnn_150_elephant_10_n02504458_5908.png
cornet-s,5,823,NaN,clock,elephant,150,5303_ps_dnn_150_elephant_10_n02504458_5774.png
cornet-s,5,824,NaN,knife,elephant,150,5304_ps_dnn_150_elephant_10_n02504013_5763.png
cornet-s,5,825,NaN,dog,elephant,150,5305_ps_dnn_150_elephant_10_n02504458_8414.png
cornet-s,5,826,NaN,knife,elephant,150,5306_ps_dnn_150_elephant_10_n02504013_1803.png
cornet-s,5,827,NaN,cat,elephant,150,5307_ps_dnn_150_elephant_10_n02504013_6742.png
cornet-s,5,828,NaN,knife,elephant,150,5308_ps_dnn_150_elephant_10_n02504013_21616.png
cornet-s,5,829,NaN,knife,elephant,150,5309_ps_dnn_150_elephant_10_n02504458_3234.png
cornet-s,5,830,NaN,knife,elephant,150,5310_ps_dnn_150_elephant_10_n02504458_4806.png
cornet-s,5,831,NaN,dog,bicycle,150,5311_ps_dnn_150_bicycle_10_n03792782_70708.png
cornet-s,5,832,NaN,dog,bicycle,150,5312_ps_dnn_150_bicycle_10_n03792782_11720.png
cornet-s,5,833,NaN,dog,bicycle,150,5313_ps_dnn_150_bicycle_10_n03792782_5966.png
cornet-s,5,834,NaN,knife,bicycle,150,5314_ps_dnn_150_bicycle_10_n02835271_22143.png
cornet-s,5,835,NaN,knife,bicycle,150,5315_ps_dnn_150_bicycle_10_n03792782_10437.png
cornet-s,5,836,NaN,knife,bicycle,150,5316_ps_dnn_150_bicycle_10_n02835271_10596.png
cornet-s,5,837,NaN,knife,bicycle,150,5317_ps_dnn_150_bicycle_10_n02835271_8105.png
cornet-s,5,838,NaN,bear,bicycle,150,5318_ps_dnn_150_bicycle_10_n02835271_9296.png
cornet-s,5,839,NaN,knife,bicycle,150,5319_ps_dnn_150_bicycle_10_n03792782_37212.png
cornet-s,5,840,NaN,knife,bicycle,150,5320_ps_dnn_150_bicycle_10_n02835271_5196.png
cornet-s,5,841,NaN,boat,airplane,150,5321_ps_dnn_150_airplane_10_n02690373_1360.png
cornet-s,5,842,NaN,knife,airplane,150,5322_ps_dnn_150_airplane_10_n02690373_6046.png
cornet-s,5,843,NaN,boat,airplane,150,5323_ps_dnn_150_airplane_10_n02690373_1946.png
cornet-s,5,844,NaN,knife,airplane,150,5324_ps_dnn_150_airplane_10_n02690373_5581.png
cornet-s,5,845,NaN,knife,airplane,150,5325_ps_dnn_150_airplane_10_n02690373_4024.png
cornet-s,5,846,NaN,knife,airplane,150,5326_ps_dnn_150_airplane_10_n02690373_17937.png
cornet-s,5,847,NaN,knife,airplane,150,5327_ps_dnn_150_airplane_10_n02690373_2967.png
cornet-s,5,848,NaN,knife,airplane,150,5328_ps_dnn_150_airplane_10_n02690373_1819.png
cornet-s,5,849,NaN,knife,airplane,150,5329_ps_dnn_150_airplane_10_n02690373_9939.png
cornet-s,5,850,NaN,knife,airplane,150,5330_ps_dnn_150_airplane_10_n02690373_3818.png
cornet-s,5,851,NaN,chair,clock,150,5331_ps_dnn_150_clock_10_n04548280_2062.png
cornet-s,5,852,NaN,bear,clock,150,5332_ps_dnn_150_clock_10_n02708093_3262.png
cornet-s,5,853,NaN,knife,clock,150,5333_ps_dnn_150_clock_10_n04548280_6046.png
cornet-s,5,854,NaN,knife,clock,150,5334_ps_dnn_150_clock_10_n03196217_6357.png
cornet-s,5,855,NaN,knife,clock,150,5335_ps_dnn_150_clock_10_n04548280_1645.png
cornet-s,5,856,NaN,elephant,clock,150,5336_ps_dnn_150_clock_10_n02708093_5734.png
cornet-s,5,857,NaN,knife,clock,150,5337_ps_dnn_150_clock_10_n02708093_597.png
cornet-s,5,858,NaN,knife,clock,150,5338_ps_dnn_150_clock_10_n03196217_2563.png
cornet-s,5,859,NaN,knife,clock,150,5339_ps_dnn_150_clock_10_n04548280_5957.png
cornet-s,5,860,NaN,cat,clock,150,5340_ps_dnn_150_clock_10_n04548280_5476.png
cornet-s,5,861,NaN,knife,oven,150,5341_ps_dnn_150_oven_10_n04111531_3470.png
cornet-s,5,862,NaN,bear,oven,150,5342_ps_dnn_150_oven_10_n04111531_1054.png
cornet-s,5,863,NaN,cat,oven,150,5343_ps_dnn_150_oven_10_n04111531_11279.png
cornet-s,5,864,NaN,cat,oven,150,5344_ps_dnn_150_oven_10_n04111531_7106.png
cornet-s,5,865,NaN,knife,oven,150,5345_ps_dnn_150_oven_10_n04111531_2630.png
cornet-s,5,866,NaN,knife,oven,150,5346_ps_dnn_150_oven_10_n04111531_7340.png
cornet-s,5,867,NaN,cat,oven,150,5347_ps_dnn_150_oven_10_n04111531_1830.png
cornet-s,5,868,NaN,boat,oven,150,5348_ps_dnn_150_oven_10_n04111531_7449.png
cornet-s,5,869,NaN,cat,oven,150,5349_ps_dnn_150_oven_10_n04111531_7764.png
cornet-s,5,870,NaN,knife,oven,150,5350_ps_dnn_150_oven_10_n04111531_6400.png
cornet-s,5,871,NaN,bicycle,chair,150,5351_ps_dnn_150_chair_10_n02791124_3537.png
cornet-s,5,872,NaN,knife,chair,150,5352_ps_dnn_150_chair_10_n02791124_6648.png
cornet-s,5,873,NaN,knife,chair,150,5353_ps_dnn_150_chair_10_n04429376_27697.png
cornet-s,5,874,NaN,knife,chair,150,5354_ps_dnn_150_chair_10_n04099969_7471.png
cornet-s,5,875,NaN,bird,chair,150,5355_ps_dnn_150_chair_10_n04429376_3852.png
cornet-s,5,876,NaN,cat,chair,150,5356_ps_dnn_150_chair_10_n03376595_6999.png
cornet-s,5,877,NaN,cat,chair,150,5357_ps_dnn_150_chair_10_n02791124_17001.png
cornet-s,5,878,NaN,knife,chair,150,5358_ps_dnn_150_chair_10_n03376595_1862.png
cornet-s,5,879,NaN,knife,chair,150,5359_ps_dnn_150_chair_10_n03376595_3038.png
cornet-s,5,880,NaN,cat,chair,150,5360_ps_dnn_150_chair_10_n04099969_6772.png
cornet-s,5,881,NaN,clock,bear,150,5361_ps_dnn_150_bear_10_n02134418_24458.png
cornet-s,5,882,NaN,knife,bear,150,5362_ps_dnn_150_bear_10_n02133161_2135.png
cornet-s,5,883,NaN,dog,bear,150,5363_ps_dnn_150_bear_10_n02134418_4364.png
cornet-s,5,884,NaN,boat,bear,150,5364_ps_dnn_150_bear_10_n02134418_5535.png
cornet-s,5,885,NaN,dog,bear,150,5365_ps_dnn_150_bear_10_n02134084_20500.png
cornet-s,5,886,NaN,boat,bear,150,5366_ps_dnn_150_bear_10_n02134084_20577.png
cornet-s,5,887,NaN,knife,bear,150,5367_ps_dnn_150_bear_10_n02134418_2655.png
cornet-s,5,888,NaN,knife,bear,150,5368_ps_dnn_150_bear_10_n02132136_3839.png
cornet-s,5,889,NaN,chair,bear,150,5369_ps_dnn_150_bear_10_n02133161_13461.png
cornet-s,5,890,NaN,bear,bear,150,5370_ps_dnn_150_bear_10_n02134418_3952.png
cornet-s,5,891,NaN,knife,boat,150,5371_ps_dnn_150_boat_10_n04612504_17581.png
cornet-s,5,892,NaN,knife,boat,150,5372_ps_dnn_150_boat_10_n03344393_3237.png
cornet-s,5,893,NaN,boat,boat,150,5373_ps_dnn_150_boat_10_n04273569_33486.png
cornet-s,5,894,NaN,cat,boat,150,5374_ps_dnn_150_boat_10_n02951358_10047.png
cornet-s,5,895,NaN,knife,boat,150,5375_ps_dnn_150_boat_10_n03344393_5842.png
cornet-s,5,896,NaN,knife,boat,150,5376_ps_dnn_150_boat_10_n03344393_1392.png
cornet-s,5,897,NaN,knife,boat,150,5377_ps_dnn_150_boat_10_n04612504_13408.png
cornet-s,5,898,NaN,knife,boat,150,5378_ps_dnn_150_boat_10_n02951358_10626.png
cornet-s,5,899,NaN,knife,boat,150,5379_ps_dnn_150_boat_10_n02951358_2350.png
cornet-s,5,900,NaN,knife,boat,150,5380_ps_dnn_150_boat_10_n03344393_6101.png
cornet-s,5,901,NaN,knife,cat,150,5381_ps_dnn_150_cat_10_n02123597_713.png
cornet-s,5,902,NaN,cat,cat,150,5382_ps_dnn_150_cat_10_n02123597_12742.png
cornet-s,5,903,NaN,knife,cat,150,5383_ps_dnn_150_cat_10_n02124075_11068.png
cornet-s,5,904,NaN,knife,cat,150,5384_ps_dnn_150_cat_10_n02123394_3515.png
cornet-s,5,905,NaN,clock,cat,150,5385_ps_dnn_150_cat_10_n02123159_2586.png
cornet-s,5,906,NaN,cat,cat,150,5386_ps_dnn_150_cat_10_n02123159_3034.png
cornet-s,5,907,NaN,bear,cat,150,5387_ps_dnn_150_cat_10_n02123394_1469.png
cornet-s,5,908,NaN,bird,cat,150,5388_ps_dnn_150_cat_10_n02125311_35073.png
cornet-s,5,909,NaN,dog,cat,150,5389_ps_dnn_150_cat_10_n02123045_3588.png
cornet-s,5,910,NaN,knife,cat,150,5390_ps_dnn_150_cat_10_n02123394_5256.png
cornet-s,5,911,NaN,knife,bottle,150,5391_ps_dnn_150_bottle_10_n03983396_10213.png
cornet-s,5,912,NaN,cat,bottle,150,5392_ps_dnn_150_bottle_10_n03983396_11654.png
cornet-s,5,913,NaN,cat,bottle,150,5393_ps_dnn_150_bottle_10_n04591713_5392.png
cornet-s,5,914,NaN,dog,bottle,150,5394_ps_dnn_150_bottle_10_n04591713_2787.png
cornet-s,5,915,NaN,cat,bottle,150,5395_ps_dnn_150_bottle_10_n03983396_18099.png
cornet-s,5,916,NaN,dog,bottle,150,5396_ps_dnn_150_bottle_10_n04560804_5322.png
cornet-s,5,917,NaN,knife,bottle,150,5397_ps_dnn_150_bottle_10_n04560804_16025.png
cornet-s,5,918,NaN,knife,bottle,150,5398_ps_dnn_150_bottle_10_n04557648_91.png
cornet-s,5,919,NaN,knife,bottle,150,5399_ps_dnn_150_bottle_10_n03937543_6343.png
cornet-s,5,920,NaN,knife,bottle,150,5400_ps_dnn_150_bottle_10_n02823428_14215.png
cornet-s,5,921,NaN,bicycle,truck,150,5401_ps_dnn_150_truck_10_n03417042_3390.png
cornet-s,5,922,NaN,knife,truck,150,5402_ps_dnn_150_truck_10_n03417042_2515.png
cornet-s,5,923,NaN,cat,truck,150,5403_ps_dnn_150_truck_10_n04467665_12867.png
cornet-s,5,924,NaN,boat,truck,150,5404_ps_dnn_150_truck_10_n03417042_1635.png
cornet-s,5,925,NaN,dog,truck,150,5405_ps_dnn_150_truck_10_n03417042_24785.png
cornet-s,5,926,NaN,cat,truck,150,5406_ps_dnn_150_truck_10_n04467665_38361.png
cornet-s,5,927,NaN,cat,truck,150,5407_ps_dnn_150_truck_10_n03796401_6503.png
cornet-s,5,928,NaN,cat,truck,150,5408_ps_dnn_150_truck_10_n03417042_12874.png
cornet-s,5,929,NaN,knife,truck,150,5409_ps_dnn_150_truck_10_n03417042_5234.png
cornet-s,5,930,NaN,bird,truck,150,5410_ps_dnn_150_truck_10_n04467665_70480.png
cornet-s,5,931,NaN,knife,car,150,5411_ps_dnn_150_car_10_n04285008_5139.png
cornet-s,5,932,NaN,knife,car,150,5412_ps_dnn_150_car_10_n04285008_4730.png
cornet-s,5,933,NaN,elephant,car,150,5413_ps_dnn_150_car_10_n04285008_8093.png
cornet-s,5,934,NaN,boat,car,150,5414_ps_dnn_150_car_10_n04285008_4969.png
cornet-s,5,935,NaN,knife,car,150,5415_ps_dnn_150_car_10_n04285008_11790.png
cornet-s,5,936,NaN,cat,car,150,5416_ps_dnn_150_car_10_n04285008_16670.png
cornet-s,5,937,NaN,boat,car,150,5417_ps_dnn_150_car_10_n04285008_11756.png
cornet-s,5,938,NaN,boat,car,150,5418_ps_dnn_150_car_10_n03100240_416.png
cornet-s,5,939,NaN,elephant,car,150,5419_ps_dnn_150_car_10_n04285008_4109.png
cornet-s,5,940,NaN,cat,car,150,5420_ps_dnn_150_car_10_n04285008_12171.png
cornet-s,5,941,NaN,knife,bird,150,5421_ps_dnn_150_bird_10_n01828970_16646.png
cornet-s,5,942,NaN,knife,bird,150,5422_ps_dnn_150_bird_10_n01622779_3876.png
cornet-s,5,943,NaN,knife,bird,150,5423_ps_dnn_150_bird_10_n02011460_2704.png
cornet-s,5,944,NaN,knife,bird,150,5424_ps_dnn_150_bird_10_n02017213_821.png
cornet-s,5,945,NaN,chair,bird,150,5425_ps_dnn_150_bird_10_n02011460_1909.png
cornet-s,5,946,NaN,knife,bird,150,5426_ps_dnn_150_bird_10_n02009229_101.png
cornet-s,5,947,NaN,knife,bird,150,5427_ps_dnn_150_bird_10_n02017213_7670.png
cornet-s,5,948,NaN,cat,bird,150,5428_ps_dnn_150_bird_10_n01843383_7567.png
cornet-s,5,949,NaN,cat,bird,150,5429_ps_dnn_150_bird_10_n01530575_9657.png
cornet-s,5,950,NaN,cat,bird,150,5430_ps_dnn_150_bird_10_n01828970_2098.png
cornet-s,5,951,NaN,cat,dog,150,5431_ps_dnn_150_dog_10_n02092339_4948.png
cornet-s,5,952,NaN,chair,dog,150,5432_ps_dnn_150_dog_10_n02096051_411.png
cornet-s,5,953,NaN,knife,dog,150,5433_ps_dnn_150_dog_10_n02102973_7095.png
cornet-s,5,954,NaN,knife,dog,150,5434_ps_dnn_150_dog_10_n02104029_319.png
cornet-s,5,955,NaN,knife,dog,150,5435_ps_dnn_150_dog_10_n02106550_9654.png
cornet-s,5,956,NaN,clock,dog,150,5436_ps_dnn_150_dog_10_n02113712_14606.png
cornet-s,5,957,NaN,dog,dog,150,5437_ps_dnn_150_dog_10_n02086646_7392.png
cornet-s,5,958,NaN,knife,dog,150,5438_ps_dnn_150_dog_10_n02099601_544.png
cornet-s,5,959,NaN,knife,dog,150,5439_ps_dnn_150_dog_10_n02096294_3139.png
cornet-s,5,960,NaN,bear,dog,150,5440_ps_dnn_150_dog_10_n02107574_3202.png
cornet-s,5,961,NaN,knife,knife,180,5441_ps_dnn_180_knife_10_n03041632_26989.png
cornet-s,5,962,NaN,knife,knife,180,5442_ps_dnn_180_knife_10_n03041632_84048.png
cornet-s,5,963,NaN,bear,knife,180,5443_ps_dnn_180_knife_10_n03041632_1607.png
cornet-s,5,964,NaN,knife,knife,180,5444_ps_dnn_180_knife_10_n03041632_19614.png
cornet-s,5,965,NaN,bear,knife,180,5445_ps_dnn_180_knife_10_n03041632_29940.png
cornet-s,5,966,NaN,knife,knife,180,5446_ps_dnn_180_knife_10_n03041632_5801.png
cornet-s,5,967,NaN,knife,knife,180,5447_ps_dnn_180_knife_10_n03041632_15431.png
cornet-s,5,968,NaN,clock,knife,180,5448_ps_dnn_180_knife_10_n03041632_7173.png
cornet-s,5,969,NaN,knife,knife,180,5449_ps_dnn_180_knife_10_n03041632_4443.png
cornet-s,5,970,NaN,bear,knife,180,5450_ps_dnn_180_knife_10_n03041632_23087.png
cornet-s,5,971,NaN,dog,keyboard,180,5451_ps_dnn_180_keyboard_10_n03085013_24408.png
cornet-s,5,972,NaN,cat,keyboard,180,5452_ps_dnn_180_keyboard_10_n03085013_22494.png
cornet-s,5,973,NaN,cat,keyboard,180,5453_ps_dnn_180_keyboard_10_n04505470_10076.png
cornet-s,5,974,NaN,knife,keyboard,180,5454_ps_dnn_180_keyboard_10_n03085013_18902.png
cornet-s,5,975,NaN,bird,keyboard,180,5455_ps_dnn_180_keyboard_10_n04505470_5923.png
cornet-s,5,976,NaN,knife,keyboard,180,5456_ps_dnn_180_keyboard_10_n03085013_17260.png
cornet-s,5,977,NaN,cat,keyboard,180,5457_ps_dnn_180_keyboard_10_n03085013_919.png
cornet-s,5,978,NaN,knife,keyboard,180,5458_ps_dnn_180_keyboard_10_n04505470_209.png
cornet-s,5,979,NaN,cat,keyboard,180,5459_ps_dnn_180_keyboard_10_n04505470_1430.png
cornet-s,5,980,NaN,cat,keyboard,180,5460_ps_dnn_180_keyboard_10_n03085013_21609.png
cornet-s,5,981,NaN,knife,elephant,180,5461_ps_dnn_180_elephant_10_n02504013_7926.png
cornet-s,5,982,NaN,knife,elephant,180,5462_ps_dnn_180_elephant_10_n02504458_5436.png
cornet-s,5,983,NaN,knife,elephant,180,5463_ps_dnn_180_elephant_10_n02504458_5824.png
cornet-s,5,984,NaN,knife,elephant,180,5464_ps_dnn_180_elephant_10_n02504458_10112.png
cornet-s,5,985,NaN,knife,elephant,180,5465_ps_dnn_180_elephant_10_n02504458_696.png
cornet-s,5,986,NaN,knife,elephant,180,5466_ps_dnn_180_elephant_10_n02504013_6606.png
cornet-s,5,987,NaN,cat,elephant,180,5467_ps_dnn_180_elephant_10_n02504458_7213.png
cornet-s,5,988,NaN,knife,elephant,180,5468_ps_dnn_180_elephant_10_n02504013_8883.png
cornet-s,5,989,NaN,dog,elephant,180,5469_ps_dnn_180_elephant_10_n02504458_4454.png
cornet-s,5,990,NaN,knife,elephant,180,5470_ps_dnn_180_elephant_10_n02504013_3295.png
cornet-s,5,991,NaN,knife,bicycle,180,5471_ps_dnn_180_bicycle_10_n03792782_10734.png
cornet-s,5,992,NaN,knife,bicycle,180,5472_ps_dnn_180_bicycle_10_n02835271_10770.png
cornet-s,5,993,NaN,boat,bicycle,180,5473_ps_dnn_180_bicycle_10_n02835271_8596.png
cornet-s,5,994,NaN,knife,bicycle,180,5474_ps_dnn_180_bicycle_10_n02835271_12360.png
cornet-s,5,995,NaN,knife,bicycle,180,5475_ps_dnn_180_bicycle_10_n03792782_3591.png
cornet-s,5,996,NaN,knife,bicycle,180,5476_ps_dnn_180_bicycle_10_n02835271_1513.png
cornet-s,5,997,NaN,dog,bicycle,180,5477_ps_dnn_180_bicycle_10_n02835271_1055.png
cornet-s,5,998,NaN,knife,bicycle,180,5478_ps_dnn_180_bicycle_10_n03792782_13835.png
cornet-s,5,999,NaN,bird,bicycle,180,5479_ps_dnn_180_bicycle_10_n03792782_55034.png
cornet-s,5,1000,NaN,knife,bicycle,180,5480_ps_dnn_180_bicycle_10_n03792782_35904.png
cornet-s,5,1001,NaN,knife,airplane,180,5481_ps_dnn_180_airplane_10_n02690373_8274.png
cornet-s,5,1002,NaN,knife,airplane,180,5482_ps_dnn_180_airplane_10_n02690373_2629.png
cornet-s,5,1003,NaN,cat,airplane,180,5483_ps_dnn_180_airplane_10_n02690373_1094.png
cornet-s,5,1004,NaN,knife,airplane,180,5484_ps_dnn_180_airplane_10_n02690373_10131.png
cornet-s,5,1005,NaN,knife,airplane,180,5485_ps_dnn_180_airplane_10_n02690373_5430.png
cornet-s,5,1006,NaN,knife,airplane,180,5486_ps_dnn_180_airplane_10_n02690373_21731.png
cornet-s,5,1007,NaN,boat,airplane,180,5487_ps_dnn_180_airplane_10_n02690373_9401.png
cornet-s,5,1008,NaN,knife,airplane,180,5488_ps_dnn_180_airplane_10_n02690373_5146.png
cornet-s,5,1009,NaN,knife,airplane,180,5489_ps_dnn_180_airplane_10_n02690373_3313.png
cornet-s,5,1010,NaN,dog,airplane,180,5490_ps_dnn_180_airplane_10_n02690373_5247.png
cornet-s,5,1011,NaN,knife,clock,180,5491_ps_dnn_180_clock_10_n02708093_2857.png
cornet-s,5,1012,NaN,cat,clock,180,5492_ps_dnn_180_clock_10_n03196217_3647.png
cornet-s,5,1013,NaN,elephant,clock,180,5493_ps_dnn_180_clock_10_n04548280_3999.png
cornet-s,5,1014,NaN,cat,clock,180,5494_ps_dnn_180_clock_10_n02708093_2006.png
cornet-s,5,1015,NaN,knife,clock,180,5495_ps_dnn_180_clock_10_n04548280_2472.png
cornet-s,5,1016,NaN,cat,clock,180,5496_ps_dnn_180_clock_10_n03196217_2695.png
cornet-s,5,1017,NaN,dog,clock,180,5497_ps_dnn_180_clock_10_n03196217_5935.png
cornet-s,5,1018,NaN,knife,clock,180,5498_ps_dnn_180_clock_10_n04548280_5354.png
cornet-s,5,1019,NaN,cat,clock,180,5499_ps_dnn_180_clock_10_n02708093_2005.png
cornet-s,5,1020,NaN,knife,clock,180,5500_ps_dnn_180_clock_10_n04548280_3153.png
cornet-s,5,1021,NaN,bicycle,oven,180,5501_ps_dnn_180_oven_10_n04111531_1128.png
cornet-s,5,1022,NaN,cat,oven,180,5502_ps_dnn_180_oven_10_n04111531_21232.png
cornet-s,5,1023,NaN,knife,oven,180,5503_ps_dnn_180_oven_10_n04111531_8082.png
cornet-s,5,1024,NaN,knife,oven,180,5504_ps_dnn_180_oven_10_n04111531_9411.png
cornet-s,5,1025,NaN,bear,oven,180,5505_ps_dnn_180_oven_10_n04111531_21176.png
cornet-s,5,1026,NaN,dog,oven,180,5506_ps_dnn_180_oven_10_n04111531_4795.png
cornet-s,5,1027,NaN,knife,oven,180,5507_ps_dnn_180_oven_10_n04111531_19576.png
cornet-s,5,1028,NaN,dog,oven,180,5508_ps_dnn_180_oven_10_n04111531_3098.png
cornet-s,5,1029,NaN,knife,oven,180,5509_ps_dnn_180_oven_10_n04111531_6934.png
cornet-s,5,1030,NaN,knife,oven,180,5510_ps_dnn_180_oven_10_n04111531_9939.png
cornet-s,5,1031,NaN,knife,chair,180,5511_ps_dnn_180_chair_10_n04429376_23944.png
cornet-s,5,1032,NaN,knife,chair,180,5512_ps_dnn_180_chair_10_n04099969_20604.png
cornet-s,5,1033,NaN,cat,chair,180,5513_ps_dnn_180_chair_10_n04099969_25.png
cornet-s,5,1034,NaN,knife,chair,180,5514_ps_dnn_180_chair_10_n03376595_3279.png
cornet-s,5,1035,NaN,dog,chair,180,5515_ps_dnn_180_chair_10_n04099969_13530.png
cornet-s,5,1036,NaN,knife,chair,180,5516_ps_dnn_180_chair_10_n03376595_3618.png
cornet-s,5,1037,NaN,knife,chair,180,5517_ps_dnn_180_chair_10_n02791124_5415.png
cornet-s,5,1038,NaN,knife,chair,180,5518_ps_dnn_180_chair_10_n03376595_7041.png
cornet-s,5,1039,NaN,knife,chair,180,5519_ps_dnn_180_chair_10_n04099969_39507.png
cornet-s,5,1040,NaN,knife,chair,180,5520_ps_dnn_180_chair_10_n04429376_5238.png
cornet-s,5,1041,NaN,knife,bear,180,5521_ps_dnn_180_bear_10_n02134418_6228.png
cornet-s,5,1042,NaN,bird,bear,180,5522_ps_dnn_180_bear_10_n02132136_18829.png
cornet-s,5,1043,NaN,cat,bear,180,5523_ps_dnn_180_bear_10_n02132136_24408.png
cornet-s,5,1044,NaN,knife,bear,180,5524_ps_dnn_180_bear_10_n02134084_6758.png
cornet-s,5,1045,NaN,knife,bear,180,5525_ps_dnn_180_bear_10_n02134084_1654.png
cornet-s,5,1046,NaN,knife,bear,180,5526_ps_dnn_180_bear_10_n02134084_14400.png
cornet-s,5,1047,NaN,bird,bear,180,5527_ps_dnn_180_bear_10_n02134418_3383.png
cornet-s,5,1048,NaN,knife,bear,180,5528_ps_dnn_180_bear_10_n02134084_473.png
cornet-s,5,1049,NaN,knife,bear,180,5529_ps_dnn_180_bear_10_n02133161_6448.png
cornet-s,5,1050,NaN,knife,bear,180,5530_ps_dnn_180_bear_10_n02134084_7077.png
cornet-s,5,1051,NaN,cat,boat,180,5531_ps_dnn_180_boat_10_n02951358_8702.png
cornet-s,5,1052,NaN,cat,boat,180,5532_ps_dnn_180_boat_10_n02951358_3159.png
cornet-s,5,1053,NaN,knife,boat,180,5533_ps_dnn_180_boat_10_n02951358_11369.png
cornet-s,5,1054,NaN,knife,boat,180,5534_ps_dnn_180_boat_10_n03344393_8380.png
cornet-s,5,1055,NaN,knife,boat,180,5535_ps_dnn_180_boat_10_n03344393_5801.png
cornet-s,5,1056,NaN,knife,boat,180,5536_ps_dnn_180_boat_10_n03344393_1147.png
cornet-s,5,1057,NaN,knife,boat,180,5537_ps_dnn_180_boat_10_n03662601_20110.png
cornet-s,5,1058,NaN,knife,boat,180,5538_ps_dnn_180_boat_10_n04612504_7077.png
cornet-s,5,1059,NaN,knife,boat,180,5539_ps_dnn_180_boat_10_n03662601_7824.png
cornet-s,5,1060,NaN,airplane,boat,180,5540_ps_dnn_180_boat_10_n04273569_23364.png
cornet-s,5,1061,NaN,knife,cat,180,5541_ps_dnn_180_cat_10_n02123045_10511.png
cornet-s,5,1062,NaN,bird,cat,180,5542_ps_dnn_180_cat_10_n02125311_43726.png
cornet-s,5,1063,NaN,knife,cat,180,5543_ps_dnn_180_cat_10_n02123159_220.png
cornet-s,5,1064,NaN,knife,cat,180,5544_ps_dnn_180_cat_10_n02123159_6558.png
cornet-s,5,1065,NaN,knife,cat,180,5545_ps_dnn_180_cat_10_n02123597_1639.png
cornet-s,5,1066,NaN,knife,cat,180,5546_ps_dnn_180_cat_10_n02123159_4051.png
cornet-s,5,1067,NaN,knife,cat,180,5547_ps_dnn_180_cat_10_n02123159_6927.png
cornet-s,5,1068,NaN,knife,cat,180,5548_ps_dnn_180_cat_10_n02125311_44642.png
cornet-s,5,1069,NaN,elephant,cat,180,5549_ps_dnn_180_cat_10_n02124075_11089.png
cornet-s,5,1070,NaN,clock,cat,180,5550_ps_dnn_180_cat_10_n02123597_4459.png
cornet-s,5,1071,NaN,knife,bottle,180,5551_ps_dnn_180_bottle_10_n04557648_11922.png
cornet-s,5,1072,NaN,dog,bottle,180,5552_ps_dnn_180_bottle_10_n04557648_5184.png
cornet-s,5,1073,NaN,knife,bottle,180,5553_ps_dnn_180_bottle_10_n04560804_225.png
cornet-s,5,1074,NaN,dog,bottle,180,5554_ps_dnn_180_bottle_10_n02823428_3204.png
cornet-s,5,1075,NaN,knife,bottle,180,5555_ps_dnn_180_bottle_10_n02823428_2468.png
cornet-s,5,1076,NaN,cat,bottle,180,5556_ps_dnn_180_bottle_10_n04560804_28584.png
cornet-s,5,1077,NaN,cat,bottle,180,5557_ps_dnn_180_bottle_10_n03937543_5841.png
cornet-s,5,1078,NaN,knife,bottle,180,5558_ps_dnn_180_bottle_10_n04579145_6414.png
cornet-s,5,1079,NaN,cat,bottle,180,5559_ps_dnn_180_bottle_10_n02823428_4800.png
cornet-s,5,1080,NaN,knife,bottle,180,5560_ps_dnn_180_bottle_10_n03937543_4399.png
cornet-s,5,1081,NaN,cat,truck,180,5561_ps_dnn_180_truck_10_n03796401_20093.png
cornet-s,5,1082,NaN,cat,truck,180,5562_ps_dnn_180_truck_10_n03417042_29303.png
cornet-s,5,1083,NaN,knife,truck,180,5563_ps_dnn_180_truck_10_n03796401_1806.png
cornet-s,5,1084,NaN,cat,truck,180,5564_ps_dnn_180_truck_10_n04467665_2422.png
cornet-s,5,1085,NaN,cat,truck,180,5565_ps_dnn_180_truck_10_n03417042_6549.png
cornet-s,5,1086,NaN,knife,truck,180,5566_ps_dnn_180_truck_10_n03417042_12936.png
cornet-s,5,1087,NaN,cat,truck,180,5567_ps_dnn_180_truck_10_n03417042_5604.png
cornet-s,5,1088,NaN,knife,truck,180,5568_ps_dnn_180_truck_10_n03417042_28743.png
cornet-s,5,1089,NaN,knife,truck,180,5569_ps_dnn_180_truck_10_n03417042_7403.png
cornet-s,5,1090,NaN,knife,truck,180,5570_ps_dnn_180_truck_10_n03796401_17457.png
cornet-s,5,1091,NaN,elephant,car,180,5571_ps_dnn_180_car_10_n04285008_5881.png
cornet-s,5,1092,NaN,bear,car,180,5572_ps_dnn_180_car_10_n03100240_1750.png
cornet-s,5,1093,NaN,cat,car,180,5573_ps_dnn_180_car_10_n02814533_28938.png
cornet-s,5,1094,NaN,airplane,car,180,5574_ps_dnn_180_car_10_n04285008_9811.png
cornet-s,5,1095,NaN,dog,car,180,5575_ps_dnn_180_car_10_n02814533_45060.png
cornet-s,5,1096,NaN,knife,car,180,5576_ps_dnn_180_car_10_n02814533_85296.png
cornet-s,5,1097,NaN,dog,car,180,5577_ps_dnn_180_car_10_n03100240_12769.png
cornet-s,5,1098,NaN,bear,car,180,5578_ps_dnn_180_car_10_n02814533_76968.png
cornet-s,5,1099,NaN,dog,car,180,5579_ps_dnn_180_car_10_n03100240_9425.png
cornet-s,5,1100,NaN,knife,car,180,5580_ps_dnn_180_car_10_n03100240_9101.png
cornet-s,5,1101,NaN,bear,bird,180,5581_ps_dnn_180_bird_10_n01796340_6900.png
cornet-s,5,1102,NaN,knife,bird,180,5582_ps_dnn_180_bird_10_n02018207_1923.png
cornet-s,5,1103,NaN,knife,bird,180,5583_ps_dnn_180_bird_10_n01819313_947.png
cornet-s,5,1104,NaN,elephant,bird,180,5584_ps_dnn_180_bird_10_n02051845_6111.png
cornet-s,5,1105,NaN,cat,bird,180,5585_ps_dnn_180_bird_10_n01530575_5400.png
cornet-s,5,1106,NaN,dog,bird,180,5586_ps_dnn_180_bird_10_n01537544_2655.png
cornet-s,5,1107,NaN,knife,bird,180,5587_ps_dnn_180_bird_10_n02018207_10870.png
cornet-s,5,1108,NaN,knife,bird,180,5588_ps_dnn_180_bird_10_n01558993_11309.png
cornet-s,5,1109,NaN,knife,bird,180,5589_ps_dnn_180_bird_10_n01819313_4277.png
cornet-s,5,1110,NaN,knife,bird,180,5590_ps_dnn_180_bird_10_n01530575_1139.png
cornet-s,5,1111,NaN,bear,dog,180,5591_ps_dnn_180_dog_10_n02099849_7576.png
cornet-s,5,1112,NaN,clock,dog,180,5592_ps_dnn_180_dog_10_n02093991_6192.png
cornet-s,5,1113,NaN,bird,dog,180,5593_ps_dnn_180_dog_10_n02109047_58489.png
cornet-s,5,1114,NaN,bear,dog,180,5594_ps_dnn_180_dog_10_n02105505_2440.png
cornet-s,5,1115,NaN,knife,dog,180,5595_ps_dnn_180_dog_10_n02095314_4477.png
cornet-s,5,1116,NaN,bird,dog,180,5596_ps_dnn_180_dog_10_n02090622_9374.png
cornet-s,5,1117,NaN,cat,dog,180,5597_ps_dnn_180_dog_10_n02100236_4305.png
cornet-s,5,1118,NaN,knife,dog,180,5598_ps_dnn_180_dog_10_n02109961_2532.png
cornet-s,5,1119,NaN,bird,dog,180,5599_ps_dnn_180_dog_10_n02100735_104.png
cornet-s,5,1120,NaN,knife,dog,180,5600_ps_dnn_180_dog_10_n02091635_3336.png
