subj,session,trial,rt,object_response,category,condition,imagename
cornet-s,4,1,NaN,knife,knife,0,3361_ps_dnn_0_knife_10_n03041632_5302.png
cornet-s,4,2,NaN,knife,knife,0,3362_ps_dnn_0_knife_10_n03041632_18863.png
cornet-s,4,3,NaN,knife,knife,0,3363_ps_dnn_0_knife_10_n03041632_27848.png
cornet-s,4,4,NaN,knife,knife,0,3364_ps_dnn_0_knife_10_n03041632_11700.png
cornet-s,4,5,NaN,knife,knife,0,3365_ps_dnn_0_knife_10_n03041632_98864.png
cornet-s,4,6,NaN,knife,knife,0,3366_ps_dnn_0_knife_10_n03041632_29684.png
cornet-s,4,7,NaN,airplane,knife,0,3367_ps_dnn_0_knife_10_n03041632_9635.png
cornet-s,4,8,NaN,knife,knife,0,3368_ps_dnn_0_knife_10_n03041632_18468.png
cornet-s,4,9,NaN,knife,knife,0,3369_ps_dnn_0_knife_10_n03041632_927.png
cornet-s,4,10,NaN,knife,knife,0,3370_ps_dnn_0_knife_10_n03041632_1671.png
cornet-s,4,11,NaN,keyboard,keyboard,0,3371_ps_dnn_0_keyboard_10_n04505470_4575.png
cornet-s,4,12,NaN,keyboard,keyboard,0,3372_ps_dnn_0_keyboard_10_n04505470_1096.png
cornet-s,4,13,NaN,keyboard,keyboard,0,3373_ps_dnn_0_keyboard_10_n03085013_22744.png
cornet-s,4,14,NaN,keyboard,keyboard,0,3374_ps_dnn_0_keyboard_10_n04505470_3566.png
cornet-s,4,15,NaN,keyboard,keyboard,0,3375_ps_dnn_0_keyboard_10_n03085013_23268.png
cornet-s,4,16,NaN,keyboard,keyboard,0,3376_ps_dnn_0_keyboard_10_n04505470_10697.png
cornet-s,4,17,NaN,keyboard,keyboard,0,3377_ps_dnn_0_keyboard_10_n04505470_4362.png
cornet-s,4,18,NaN,keyboard,keyboard,0,3378_ps_dnn_0_keyboard_10_n04505470_147.png
cornet-s,4,19,NaN,keyboard,keyboard,0,3379_ps_dnn_0_keyboard_10_n03085013_3204.png
cornet-s,4,20,NaN,keyboard,keyboard,0,3380_ps_dnn_0_keyboard_10_n03085013_15825.png
cornet-s,4,21,NaN,elephant,elephant,0,3381_ps_dnn_0_elephant_10_n02504013_5615.png
cornet-s,4,22,NaN,elephant,elephant,0,3382_ps_dnn_0_elephant_10_n02504458_224.png
cornet-s,4,23,NaN,elephant,elephant,0,3383_ps_dnn_0_elephant_10_n02504013_6660.png
cornet-s,4,24,NaN,elephant,elephant,0,3384_ps_dnn_0_elephant_10_n02504013_9678.png
cornet-s,4,25,NaN,elephant,elephant,0,3385_ps_dnn_0_elephant_10_n02504458_7084.png
cornet-s,4,26,NaN,elephant,elephant,0,3386_ps_dnn_0_elephant_10_n02504013_3847.png
cornet-s,4,27,NaN,elephant,elephant,0,3387_ps_dnn_0_elephant_10_n02504013_2796.png
cornet-s,4,28,NaN,elephant,elephant,0,3388_ps_dnn_0_elephant_10_n02504013_3173.png
cornet-s,4,29,NaN,elephant,elephant,0,3389_ps_dnn_0_elephant_10_n02504458_3344.png
cornet-s,4,30,NaN,elephant,elephant,0,3390_ps_dnn_0_elephant_10_n02504458_7259.png
cornet-s,4,31,NaN,bicycle,bicycle,0,3391_ps_dnn_0_bicycle_10_n03792782_42131.png
cornet-s,4,32,NaN,bicycle,bicycle,0,3392_ps_dnn_0_bicycle_10_n02835271_4923.png
cornet-s,4,33,NaN,bicycle,bicycle,0,3393_ps_dnn_0_bicycle_10_n03792782_8271.png
cornet-s,4,34,NaN,bicycle,bicycle,0,3394_ps_dnn_0_bicycle_10_n03792782_5665.png
cornet-s,4,35,NaN,bicycle,bicycle,0,3395_ps_dnn_0_bicycle_10_n03792782_6512.png
cornet-s,4,36,NaN,bicycle,bicycle,0,3396_ps_dnn_0_bicycle_10_n03792782_49637.png
cornet-s,4,37,NaN,bicycle,bicycle,0,3397_ps_dnn_0_bicycle_10_n03792782_11023.png
cornet-s,4,38,NaN,bicycle,bicycle,0,3398_ps_dnn_0_bicycle_10_n02835271_507.png
cornet-s,4,39,NaN,bicycle,bicycle,0,3399_ps_dnn_0_bicycle_10_n02835271_8109.png
cornet-s,4,40,NaN,bicycle,bicycle,0,3400_ps_dnn_0_bicycle_10_n03792782_45780.png
cornet-s,4,41,NaN,airplane,airplane,0,3401_ps_dnn_0_airplane_10_n02690373_744.png
cornet-s,4,42,NaN,airplane,airplane,0,3402_ps_dnn_0_airplane_10_n02690373_2433.png
cornet-s,4,43,NaN,airplane,airplane,0,3403_ps_dnn_0_airplane_10_n02690373_6492.png
cornet-s,4,44,NaN,airplane,airplane,0,3404_ps_dnn_0_airplane_10_n02690373_5534.png
cornet-s,4,45,NaN,airplane,airplane,0,3405_ps_dnn_0_airplane_10_n02690373_4412.png
cornet-s,4,46,NaN,airplane,airplane,0,3406_ps_dnn_0_airplane_10_n02690373_7375.png
cornet-s,4,47,NaN,airplane,airplane,0,3407_ps_dnn_0_airplane_10_n02690373_2078.png
cornet-s,4,48,NaN,airplane,airplane,0,3408_ps_dnn_0_airplane_10_n02690373_5778.png
cornet-s,4,49,NaN,airplane,airplane,0,3409_ps_dnn_0_airplane_10_n02690373_4105.png
cornet-s,4,50,NaN,airplane,airplane,0,3410_ps_dnn_0_airplane_10_n02690373_2867.png
cornet-s,4,51,NaN,clock,clock,0,3411_ps_dnn_0_clock_10_n02708093_1559.png
cornet-s,4,52,NaN,clock,clock,0,3412_ps_dnn_0_clock_10_n04548280_15157.png
cornet-s,4,53,NaN,clock,clock,0,3413_ps_dnn_0_clock_10_n02708093_2498.png
cornet-s,4,54,NaN,clock,clock,0,3414_ps_dnn_0_clock_10_n03196217_1792.png
cornet-s,4,55,NaN,clock,clock,0,3415_ps_dnn_0_clock_10_n02708093_2833.png
cornet-s,4,56,NaN,clock,clock,0,3416_ps_dnn_0_clock_10_n04548280_6361.png
cornet-s,4,57,NaN,clock,clock,0,3417_ps_dnn_0_clock_10_n04548280_7781.png
cornet-s,4,58,NaN,clock,clock,0,3418_ps_dnn_0_clock_10_n04548280_1440.png
cornet-s,4,59,NaN,clock,clock,0,3419_ps_dnn_0_clock_10_n04548280_7384.png
cornet-s,4,60,NaN,clock,clock,0,3420_ps_dnn_0_clock_10_n04548280_21.png
cornet-s,4,61,NaN,oven,oven,0,3421_ps_dnn_0_oven_10_n04111531_5204.png
cornet-s,4,62,NaN,oven,oven,0,3422_ps_dnn_0_oven_10_n04111531_22517.png
cornet-s,4,63,NaN,oven,oven,0,3423_ps_dnn_0_oven_10_n04111531_8081.png
cornet-s,4,64,NaN,oven,oven,0,3424_ps_dnn_0_oven_10_n04111531_21963.png
cornet-s,4,65,NaN,oven,oven,0,3425_ps_dnn_0_oven_10_n04111531_14934.png
cornet-s,4,66,NaN,oven,oven,0,3426_ps_dnn_0_oven_10_n04111531_3570.png
cornet-s,4,67,NaN,oven,oven,0,3427_ps_dnn_0_oven_10_n04111531_4904.png
cornet-s,4,68,NaN,oven,oven,0,3428_ps_dnn_0_oven_10_n04111531_22834.png
cornet-s,4,69,NaN,oven,oven,0,3429_ps_dnn_0_oven_10_n04111531_2342.png
cornet-s,4,70,NaN,oven,oven,0,3430_ps_dnn_0_oven_10_n04111531_807.png
cornet-s,4,71,NaN,chair,chair,0,3431_ps_dnn_0_chair_10_n04429376_10059.png
cornet-s,4,72,NaN,chair,chair,0,3432_ps_dnn_0_chair_10_n04099969_1490.png
cornet-s,4,73,NaN,chair,chair,0,3433_ps_dnn_0_chair_10_n02791124_958.png
cornet-s,4,74,NaN,chair,chair,0,3434_ps_dnn_0_chair_10_n02791124_177.png
cornet-s,4,75,NaN,chair,chair,0,3435_ps_dnn_0_chair_10_n02791124_2123.png
cornet-s,4,76,NaN,bicycle,chair,0,3436_ps_dnn_0_chair_10_n04429376_9312.png
cornet-s,4,77,NaN,chair,chair,0,3437_ps_dnn_0_chair_10_n04099969_18049.png
cornet-s,4,78,NaN,chair,chair,0,3438_ps_dnn_0_chair_10_n03376595_766.png
cornet-s,4,79,NaN,chair,chair,0,3439_ps_dnn_0_chair_10_n04099969_25659.png
cornet-s,4,80,NaN,chair,chair,0,3440_ps_dnn_0_chair_10_n04099969_1696.png
cornet-s,4,81,NaN,bear,bear,0,3441_ps_dnn_0_bear_10_n02133161_2346.png
cornet-s,4,82,NaN,bear,bear,0,3442_ps_dnn_0_bear_10_n02134418_5365.png
cornet-s,4,83,NaN,bear,bear,0,3443_ps_dnn_0_bear_10_n02132136_29760.png
cornet-s,4,84,NaN,bear,bear,0,3444_ps_dnn_0_bear_10_n02134084_14031.png
cornet-s,4,85,NaN,bear,bear,0,3445_ps_dnn_0_bear_10_n02134084_8144.png
cornet-s,4,86,NaN,bear,bear,0,3446_ps_dnn_0_bear_10_n02134418_1830.png
cornet-s,4,87,NaN,bear,bear,0,3447_ps_dnn_0_bear_10_n02134418_593.png
cornet-s,4,88,NaN,bear,bear,0,3448_ps_dnn_0_bear_10_n02133161_5286.png
cornet-s,4,89,NaN,bear,bear,0,3449_ps_dnn_0_bear_10_n02133161_1092.png
cornet-s,4,90,NaN,bear,bear,0,3450_ps_dnn_0_bear_10_n02133161_7604.png
cornet-s,4,91,NaN,boat,boat,0,3451_ps_dnn_0_boat_10_n04273569_4917.png
cornet-s,4,92,NaN,boat,boat,0,3452_ps_dnn_0_boat_10_n03344393_3796.png
cornet-s,4,93,NaN,boat,boat,0,3453_ps_dnn_0_boat_10_n03662601_21543.png
cornet-s,4,94,NaN,boat,boat,0,3454_ps_dnn_0_boat_10_n03344393_2875.png
cornet-s,4,95,NaN,boat,boat,0,3455_ps_dnn_0_boat_10_n03344393_4273.png
cornet-s,4,96,NaN,boat,boat,0,3456_ps_dnn_0_boat_10_n03662601_7662.png
cornet-s,4,97,NaN,boat,boat,0,3457_ps_dnn_0_boat_10_n04612504_16600.png
cornet-s,4,98,NaN,boat,boat,0,3458_ps_dnn_0_boat_10_n04612504_18699.png
cornet-s,4,99,NaN,boat,boat,0,3459_ps_dnn_0_boat_10_n04612504_10662.png
cornet-s,4,100,NaN,boat,boat,0,3460_ps_dnn_0_boat_10_n03662601_22889.png
cornet-s,4,101,NaN,cat,cat,0,3461_ps_dnn_0_cat_10_n02123394_5731.png
cornet-s,4,102,NaN,cat,cat,0,3462_ps_dnn_0_cat_10_n02123597_5218.png
cornet-s,4,103,NaN,cat,cat,0,3463_ps_dnn_0_cat_10_n02123159_2477.png
cornet-s,4,104,NaN,cat,cat,0,3464_ps_dnn_0_cat_10_n02124075_7979.png
cornet-s,4,105,NaN,cat,cat,0,3465_ps_dnn_0_cat_10_n02123597_2162.png
cornet-s,4,106,NaN,cat,cat,0,3466_ps_dnn_0_cat_10_n02123394_995.png
cornet-s,4,107,NaN,cat,cat,0,3467_ps_dnn_0_cat_10_n02123597_23389.png
cornet-s,4,108,NaN,cat,cat,0,3468_ps_dnn_0_cat_10_n02123394_870.png
cornet-s,4,109,NaN,cat,cat,0,3469_ps_dnn_0_cat_10_n02123394_642.png
cornet-s,4,110,NaN,cat,cat,0,3470_ps_dnn_0_cat_10_n02123159_7228.png
cornet-s,4,111,NaN,bottle,bottle,0,3471_ps_dnn_0_bottle_10_n04579145_6880.png
cornet-s,4,112,NaN,bottle,bottle,0,3472_ps_dnn_0_bottle_10_n04557648_20572.png
cornet-s,4,113,NaN,bottle,bottle,0,3473_ps_dnn_0_bottle_10_n03983396_24827.png
cornet-s,4,114,NaN,bottle,bottle,0,3474_ps_dnn_0_bottle_10_n04591713_667.png
cornet-s,4,115,NaN,bottle,bottle,0,3475_ps_dnn_0_bottle_10_n03983396_4455.png
cornet-s,4,116,NaN,bottle,bottle,0,3476_ps_dnn_0_bottle_10_n04560804_15983.png
cornet-s,4,117,NaN,bottle,bottle,0,3477_ps_dnn_0_bottle_10_n04560804_3392.png
cornet-s,4,118,NaN,bottle,bottle,0,3478_ps_dnn_0_bottle_10_n03983396_5694.png
cornet-s,4,119,NaN,bottle,bottle,0,3479_ps_dnn_0_bottle_10_n03937543_4094.png
cornet-s,4,120,NaN,bottle,bottle,0,3480_ps_dnn_0_bottle_10_n04560804_21647.png
cornet-s,4,121,NaN,truck,truck,0,3481_ps_dnn_0_truck_10_n04467665_71927.png
cornet-s,4,122,NaN,truck,truck,0,3482_ps_dnn_0_truck_10_n03796401_6487.png
cornet-s,4,123,NaN,truck,truck,0,3483_ps_dnn_0_truck_10_n04467665_74008.png
cornet-s,4,124,NaN,truck,truck,0,3484_ps_dnn_0_truck_10_n03417042_26437.png
cornet-s,4,125,NaN,truck,truck,0,3485_ps_dnn_0_truck_10_n04467665_11776.png
cornet-s,4,126,NaN,truck,truck,0,3486_ps_dnn_0_truck_10_n03417042_26713.png
cornet-s,4,127,NaN,truck,truck,0,3487_ps_dnn_0_truck_10_n04467665_52320.png
cornet-s,4,128,NaN,truck,truck,0,3488_ps_dnn_0_truck_10_n04467665_25374.png
cornet-s,4,129,NaN,truck,truck,0,3489_ps_dnn_0_truck_10_n04467665_52552.png
cornet-s,4,130,NaN,truck,truck,0,3490_ps_dnn_0_truck_10_n03417042_7530.png
cornet-s,4,131,NaN,car,car,0,3491_ps_dnn_0_car_10_n02814533_5899.png
cornet-s,4,132,NaN,car,car,0,3492_ps_dnn_0_car_10_n02814533_74176.png
cornet-s,4,133,NaN,car,car,0,3493_ps_dnn_0_car_10_n02814533_38862.png
cornet-s,4,134,NaN,car,car,0,3494_ps_dnn_0_car_10_n02814533_5991.png
cornet-s,4,135,NaN,car,car,0,3495_ps_dnn_0_car_10_n04285008_7034.png
cornet-s,4,136,NaN,car,car,0,3496_ps_dnn_0_car_10_n03100240_9467.png
cornet-s,4,137,NaN,car,car,0,3497_ps_dnn_0_car_10_n02814533_31275.png
cornet-s,4,138,NaN,car,car,0,3498_ps_dnn_0_car_10_n02814533_88986.png
cornet-s,4,139,NaN,car,car,0,3499_ps_dnn_0_car_10_n02814533_41058.png
cornet-s,4,140,NaN,car,car,0,3500_ps_dnn_0_car_10_n03100240_12545.png
cornet-s,4,141,NaN,chair,bird,0,3501_ps_dnn_0_bird_10_n02009229_2324.png
cornet-s,4,142,NaN,bird,bird,0,3502_ps_dnn_0_bird_10_n02007558_12435.png
cornet-s,4,143,NaN,bird,bird,0,3503_ps_dnn_0_bird_10_n01818515_10084.png
cornet-s,4,144,NaN,bird,bird,0,3504_ps_dnn_0_bird_10_n01616318_2111.png
cornet-s,4,145,NaN,bird,bird,0,3505_ps_dnn_0_bird_10_n02018795_6941.png
cornet-s,4,146,NaN,bird,bird,0,3506_ps_dnn_0_bird_10_n01828970_5908.png
cornet-s,4,147,NaN,bird,bird,0,3507_ps_dnn_0_bird_10_n01797886_3821.png
cornet-s,4,148,NaN,bird,bird,0,3508_ps_dnn_0_bird_10_n01798484_7469.png
cornet-s,4,149,NaN,bird,bird,0,3509_ps_dnn_0_bird_10_n02013706_13473.png
cornet-s,4,150,NaN,chair,bird,0,3510_ps_dnn_0_bird_10_n01582220_5289.png
cornet-s,4,151,NaN,dog,dog,0,3511_ps_dnn_0_dog_10_n02088364_10580.png
cornet-s,4,152,NaN,dog,dog,0,3512_ps_dnn_0_dog_10_n02112018_6021.png
cornet-s,4,153,NaN,dog,dog,0,3513_ps_dnn_0_dog_10_n02106030_6820.png
cornet-s,4,154,NaN,dog,dog,0,3514_ps_dnn_0_dog_10_n02113624_932.png
cornet-s,4,155,NaN,dog,dog,0,3515_ps_dnn_0_dog_10_n02106662_18405.png
cornet-s,4,156,NaN,dog,dog,0,3516_ps_dnn_0_dog_10_n02109961_16240.png
cornet-s,4,157,NaN,dog,dog,0,3517_ps_dnn_0_dog_10_n02099267_2909.png
cornet-s,4,158,NaN,dog,dog,0,3518_ps_dnn_0_dog_10_n02106550_4084.png
cornet-s,4,159,NaN,dog,dog,0,3519_ps_dnn_0_dog_10_n02092339_4271.png
cornet-s,4,160,NaN,dog,dog,0,3520_ps_dnn_0_dog_10_n02112350_8454.png
cornet-s,4,161,NaN,knife,knife,30,3521_ps_dnn_30_knife_10_n03041632_31632.png
cornet-s,4,162,NaN,knife,knife,30,3522_ps_dnn_30_knife_10_n03041632_54603.png
cornet-s,4,163,NaN,knife,knife,30,3523_ps_dnn_30_knife_10_n03041632_24646.png
cornet-s,4,164,NaN,knife,knife,30,3524_ps_dnn_30_knife_10_n03041632_13846.png
cornet-s,4,165,NaN,knife,knife,30,3525_ps_dnn_30_knife_10_n03041632_751.png
cornet-s,4,166,NaN,knife,knife,30,3526_ps_dnn_30_knife_10_n03041632_5727.png
cornet-s,4,167,NaN,knife,knife,30,3527_ps_dnn_30_knife_10_n03041632_32054.png
cornet-s,4,168,NaN,knife,knife,30,3528_ps_dnn_30_knife_10_n03041632_15099.png
cornet-s,4,169,NaN,chair,knife,30,3529_ps_dnn_30_knife_10_n03041632_83472.png
cornet-s,4,170,NaN,knife,knife,30,3530_ps_dnn_30_knife_10_n03041632_30457.png
cornet-s,4,171,NaN,keyboard,keyboard,30,3531_ps_dnn_30_keyboard_10_n04505470_142.png
cornet-s,4,172,NaN,keyboard,keyboard,30,3532_ps_dnn_30_keyboard_10_n04505470_2010.png
cornet-s,4,173,NaN,keyboard,keyboard,30,3533_ps_dnn_30_keyboard_10_n03085013_7752.png
cornet-s,4,174,NaN,keyboard,keyboard,30,3534_ps_dnn_30_keyboard_10_n03085013_23764.png
cornet-s,4,175,NaN,keyboard,keyboard,30,3535_ps_dnn_30_keyboard_10_n03085013_19203.png
cornet-s,4,176,NaN,keyboard,keyboard,30,3536_ps_dnn_30_keyboard_10_n04505470_650.png
cornet-s,4,177,NaN,keyboard,keyboard,30,3537_ps_dnn_30_keyboard_10_n03085013_23731.png
cornet-s,4,178,NaN,keyboard,keyboard,30,3538_ps_dnn_30_keyboard_10_n04505470_4909.png
cornet-s,4,179,NaN,keyboard,keyboard,30,3539_ps_dnn_30_keyboard_10_n04505470_3970.png
cornet-s,4,180,NaN,keyboard,keyboard,30,3540_ps_dnn_30_keyboard_10_n03085013_18763.png
cornet-s,4,181,NaN,elephant,elephant,30,3541_ps_dnn_30_elephant_10_n02504458_6029.png
cornet-s,4,182,NaN,elephant,elephant,30,3542_ps_dnn_30_elephant_10_n02504458_706.png
cornet-s,4,183,NaN,elephant,elephant,30,3543_ps_dnn_30_elephant_10_n02504013_8028.png
cornet-s,4,184,NaN,elephant,elephant,30,3544_ps_dnn_30_elephant_10_n02504013_10621.png
cornet-s,4,185,NaN,bear,elephant,30,3545_ps_dnn_30_elephant_10_n02504458_2068.png
cornet-s,4,186,NaN,elephant,elephant,30,3546_ps_dnn_30_elephant_10_n02504458_3324.png
cornet-s,4,187,NaN,elephant,elephant,30,3547_ps_dnn_30_elephant_10_n02504458_235.png
cornet-s,4,188,NaN,elephant,elephant,30,3548_ps_dnn_30_elephant_10_n02504458_964.png
cornet-s,4,189,NaN,elephant,elephant,30,3549_ps_dnn_30_elephant_10_n02504013_1228.png
cornet-s,4,190,NaN,bicycle,elephant,30,3550_ps_dnn_30_elephant_10_n02504013_4386.png
cornet-s,4,191,NaN,bicycle,bicycle,30,3551_ps_dnn_30_bicycle_10_n02835271_13396.png
cornet-s,4,192,NaN,bicycle,bicycle,30,3552_ps_dnn_30_bicycle_10_n02835271_7737.png
cornet-s,4,193,NaN,bicycle,bicycle,30,3553_ps_dnn_30_bicycle_10_n02835271_13965.png
cornet-s,4,194,NaN,bicycle,bicycle,30,3554_ps_dnn_30_bicycle_10_n03792782_7003.png
cornet-s,4,195,NaN,bicycle,bicycle,30,3555_ps_dnn_30_bicycle_10_n02835271_8304.png
cornet-s,4,196,NaN,bicycle,bicycle,30,3556_ps_dnn_30_bicycle_10_n03792782_41388.png
cornet-s,4,197,NaN,bicycle,bicycle,30,3557_ps_dnn_30_bicycle_10_n03792782_877.png
cornet-s,4,198,NaN,bicycle,bicycle,30,3558_ps_dnn_30_bicycle_10_n03792782_7099.png
cornet-s,4,199,NaN,bicycle,bicycle,30,3559_ps_dnn_30_bicycle_10_n02835271_3611.png
cornet-s,4,200,NaN,bicycle,bicycle,30,3560_ps_dnn_30_bicycle_10_n02835271_1147.png
cornet-s,4,201,NaN,airplane,airplane,30,3561_ps_dnn_30_airplane_10_n02690373_13317.png
cornet-s,4,202,NaN,airplane,airplane,30,3562_ps_dnn_30_airplane_10_n02690373_2514.png
cornet-s,4,203,NaN,airplane,airplane,30,3563_ps_dnn_30_airplane_10_n02690373_102.png
cornet-s,4,204,NaN,airplane,airplane,30,3564_ps_dnn_30_airplane_10_n02690373_7093.png
cornet-s,4,205,NaN,airplane,airplane,30,3565_ps_dnn_30_airplane_10_n02690373_807.png
cornet-s,4,206,NaN,airplane,airplane,30,3566_ps_dnn_30_airplane_10_n02690373_1235.png
cornet-s,4,207,NaN,airplane,airplane,30,3567_ps_dnn_30_airplane_10_n02690373_5779.png
cornet-s,4,208,NaN,airplane,airplane,30,3568_ps_dnn_30_airplane_10_n02690373_1050.png
cornet-s,4,209,NaN,airplane,airplane,30,3569_ps_dnn_30_airplane_10_n02690373_2131.png
cornet-s,4,210,NaN,airplane,airplane,30,3570_ps_dnn_30_airplane_10_n02690373_18848.png
cornet-s,4,211,NaN,clock,clock,30,3571_ps_dnn_30_clock_10_n02708093_3232.png
cornet-s,4,212,NaN,clock,clock,30,3572_ps_dnn_30_clock_10_n04548280_6337.png
cornet-s,4,213,NaN,clock,clock,30,3573_ps_dnn_30_clock_10_n04548280_6437.png
cornet-s,4,214,NaN,clock,clock,30,3574_ps_dnn_30_clock_10_n04548280_487.png
cornet-s,4,215,NaN,clock,clock,30,3575_ps_dnn_30_clock_10_n04548280_7588.png
cornet-s,4,216,NaN,clock,clock,30,3576_ps_dnn_30_clock_10_n04548280_3299.png
cornet-s,4,217,NaN,clock,clock,30,3577_ps_dnn_30_clock_10_n03196217_10634.png
cornet-s,4,218,NaN,keyboard,clock,30,3578_ps_dnn_30_clock_10_n03196217_1275.png
cornet-s,4,219,NaN,clock,clock,30,3579_ps_dnn_30_clock_10_n02708093_2840.png
cornet-s,4,220,NaN,clock,clock,30,3580_ps_dnn_30_clock_10_n03196217_6268.png
cornet-s,4,221,NaN,clock,oven,30,3581_ps_dnn_30_oven_10_n04111531_3575.png
cornet-s,4,222,NaN,oven,oven,30,3582_ps_dnn_30_oven_10_n04111531_1165.png
cornet-s,4,223,NaN,oven,oven,30,3583_ps_dnn_30_oven_10_n04111531_10727.png
cornet-s,4,224,NaN,oven,oven,30,3584_ps_dnn_30_oven_10_n04111531_5950.png
cornet-s,4,225,NaN,oven,oven,30,3585_ps_dnn_30_oven_10_n04111531_594.png
cornet-s,4,226,NaN,oven,oven,30,3586_ps_dnn_30_oven_10_n04111531_5351.png
cornet-s,4,227,NaN,oven,oven,30,3587_ps_dnn_30_oven_10_n04111531_2715.png
cornet-s,4,228,NaN,oven,oven,30,3588_ps_dnn_30_oven_10_n04111531_6955.png
cornet-s,4,229,NaN,oven,oven,30,3589_ps_dnn_30_oven_10_n04111531_887.png
cornet-s,4,230,NaN,oven,oven,30,3590_ps_dnn_30_oven_10_n04111531_3886.png
cornet-s,4,231,NaN,chair,chair,30,3591_ps_dnn_30_chair_10_n03376595_7071.png
cornet-s,4,232,NaN,chair,chair,30,3592_ps_dnn_30_chair_10_n04099969_55680.png
cornet-s,4,233,NaN,chair,chair,30,3593_ps_dnn_30_chair_10_n02791124_1582.png
cornet-s,4,234,NaN,chair,chair,30,3594_ps_dnn_30_chair_10_n04099969_1231.png
cornet-s,4,235,NaN,chair,chair,30,3595_ps_dnn_30_chair_10_n04429376_12100.png
cornet-s,4,236,NaN,chair,chair,30,3596_ps_dnn_30_chair_10_n04099969_8509.png
cornet-s,4,237,NaN,chair,chair,30,3597_ps_dnn_30_chair_10_n03376595_7568.png
cornet-s,4,238,NaN,chair,chair,30,3598_ps_dnn_30_chair_10_n03376595_6864.png
cornet-s,4,239,NaN,chair,chair,30,3599_ps_dnn_30_chair_10_n02791124_2358.png
cornet-s,4,240,NaN,chair,chair,30,3600_ps_dnn_30_chair_10_n04099969_9431.png
cornet-s,4,241,NaN,bear,bear,30,3601_ps_dnn_30_bear_10_n02133161_10024.png
cornet-s,4,242,NaN,bear,bear,30,3602_ps_dnn_30_bear_10_n02132136_1810.png
cornet-s,4,243,NaN,bear,bear,30,3603_ps_dnn_30_bear_10_n02134418_2649.png
cornet-s,4,244,NaN,bear,bear,30,3604_ps_dnn_30_bear_10_n02134084_7306.png
cornet-s,4,245,NaN,bear,bear,30,3605_ps_dnn_30_bear_10_n02134418_1022.png
cornet-s,4,246,NaN,bear,bear,30,3606_ps_dnn_30_bear_10_n02133161_3026.png
cornet-s,4,247,NaN,bear,bear,30,3607_ps_dnn_30_bear_10_n02133161_4398.png
cornet-s,4,248,NaN,bear,bear,30,3608_ps_dnn_30_bear_10_n02134084_11205.png
cornet-s,4,249,NaN,bear,bear,30,3609_ps_dnn_30_bear_10_n02134084_42216.png
cornet-s,4,250,NaN,bear,bear,30,3610_ps_dnn_30_bear_10_n02133161_15299.png
cornet-s,4,251,NaN,boat,boat,30,3611_ps_dnn_30_boat_10_n03662601_25969.png
cornet-s,4,252,NaN,boat,boat,30,3612_ps_dnn_30_boat_10_n04612504_12941.png
cornet-s,4,253,NaN,boat,boat,30,3613_ps_dnn_30_boat_10_n02951358_31030.png
cornet-s,4,254,NaN,boat,boat,30,3614_ps_dnn_30_boat_10_n02951358_12232.png
cornet-s,4,255,NaN,boat,boat,30,3615_ps_dnn_30_boat_10_n03662601_8344.png
cornet-s,4,256,NaN,boat,boat,30,3616_ps_dnn_30_boat_10_n03662601_26338.png
cornet-s,4,257,NaN,boat,boat,30,3617_ps_dnn_30_boat_10_n04612504_8711.png
cornet-s,4,258,NaN,boat,boat,30,3618_ps_dnn_30_boat_10_n04273569_6331.png
cornet-s,4,259,NaN,boat,boat,30,3619_ps_dnn_30_boat_10_n02951358_11401.png
cornet-s,4,260,NaN,boat,boat,30,3620_ps_dnn_30_boat_10_n03662601_1787.png
cornet-s,4,261,NaN,cat,cat,30,3621_ps_dnn_30_cat_10_n02125311_30629.png
cornet-s,4,262,NaN,cat,cat,30,3622_ps_dnn_30_cat_10_n02123159_3507.png
cornet-s,4,263,NaN,cat,cat,30,3623_ps_dnn_30_cat_10_n02124075_9743.png
cornet-s,4,264,NaN,cat,cat,30,3624_ps_dnn_30_cat_10_n02123394_4845.png
cornet-s,4,265,NaN,cat,cat,30,3625_ps_dnn_30_cat_10_n02125311_41798.png
cornet-s,4,266,NaN,cat,cat,30,3626_ps_dnn_30_cat_10_n02125311_74053.png
cornet-s,4,267,NaN,cat,cat,30,3627_ps_dnn_30_cat_10_n02123045_5549.png
cornet-s,4,268,NaN,cat,cat,30,3628_ps_dnn_30_cat_10_n02123394_4653.png
cornet-s,4,269,NaN,cat,cat,30,3629_ps_dnn_30_cat_10_n02123597_8113.png
cornet-s,4,270,NaN,cat,cat,30,3630_ps_dnn_30_cat_10_n02125311_33300.png
cornet-s,4,271,NaN,bottle,bottle,30,3631_ps_dnn_30_bottle_10_n04579145_1023.png
cornet-s,4,272,NaN,boat,bottle,30,3632_ps_dnn_30_bottle_10_n04557648_4066.png
cornet-s,4,273,NaN,bottle,bottle,30,3633_ps_dnn_30_bottle_10_n03937543_958.png
cornet-s,4,274,NaN,bottle,bottle,30,3634_ps_dnn_30_bottle_10_n04579145_5833.png
cornet-s,4,275,NaN,bottle,bottle,30,3635_ps_dnn_30_bottle_10_n04560804_3495.png
cornet-s,4,276,NaN,bottle,bottle,30,3636_ps_dnn_30_bottle_10_n03983396_10309.png
cornet-s,4,277,NaN,bottle,bottle,30,3637_ps_dnn_30_bottle_10_n03983396_2975.png
cornet-s,4,278,NaN,bottle,bottle,30,3638_ps_dnn_30_bottle_10_n03983396_11670.png
cornet-s,4,279,NaN,bottle,bottle,30,3639_ps_dnn_30_bottle_10_n03937543_3060.png
cornet-s,4,280,NaN,bottle,bottle,30,3640_ps_dnn_30_bottle_10_n04579145_5755.png
cornet-s,4,281,NaN,truck,truck,30,3641_ps_dnn_30_truck_10_n03417042_5153.png
cornet-s,4,282,NaN,truck,truck,30,3642_ps_dnn_30_truck_10_n03417042_27587.png
cornet-s,4,283,NaN,truck,truck,30,3643_ps_dnn_30_truck_10_n03417042_27022.png
cornet-s,4,284,NaN,truck,truck,30,3644_ps_dnn_30_truck_10_n03417042_5229.png
cornet-s,4,285,NaN,truck,truck,30,3645_ps_dnn_30_truck_10_n04467665_23905.png
cornet-s,4,286,NaN,truck,truck,30,3646_ps_dnn_30_truck_10_n04467665_67984.png
cornet-s,4,287,NaN,truck,truck,30,3647_ps_dnn_30_truck_10_n03796401_10766.png
cornet-s,4,288,NaN,truck,truck,30,3648_ps_dnn_30_truck_10_n04467665_3125.png
cornet-s,4,289,NaN,truck,truck,30,3649_ps_dnn_30_truck_10_n03417042_28702.png
cornet-s,4,290,NaN,truck,truck,30,3650_ps_dnn_30_truck_10_n03417042_4292.png
cornet-s,4,291,NaN,car,car,30,3651_ps_dnn_30_car_10_n02814533_94474.png
cornet-s,4,292,NaN,truck,car,30,3652_ps_dnn_30_car_10_n02814533_10594.png
cornet-s,4,293,NaN,car,car,30,3653_ps_dnn_30_car_10_n04285008_1949.png
cornet-s,4,294,NaN,chair,car,30,3654_ps_dnn_30_car_10_n02814533_1061.png
cornet-s,4,295,NaN,car,car,30,3655_ps_dnn_30_car_10_n04285008_8017.png
cornet-s,4,296,NaN,car,car,30,3656_ps_dnn_30_car_10_n04285008_2395.png
cornet-s,4,297,NaN,car,car,30,3657_ps_dnn_30_car_10_n02814533_3117.png
cornet-s,4,298,NaN,car,car,30,3658_ps_dnn_30_car_10_n02814533_458.png
cornet-s,4,299,NaN,car,car,30,3659_ps_dnn_30_car_10_n04285008_9832.png
cornet-s,4,300,NaN,car,car,30,3660_ps_dnn_30_car_10_n03100240_9586.png
cornet-s,4,301,NaN,bird,bird,30,3661_ps_dnn_30_bird_10_n01829413_4492.png
cornet-s,4,302,NaN,bird,bird,30,3662_ps_dnn_30_bird_10_n02009229_5764.png
cornet-s,4,303,NaN,chair,bird,30,3663_ps_dnn_30_bird_10_n01558993_5185.png
cornet-s,4,304,NaN,bird,bird,30,3664_ps_dnn_30_bird_10_n01514859_12981.png
cornet-s,4,305,NaN,bird,bird,30,3665_ps_dnn_30_bird_10_n02027492_5009.png
cornet-s,4,306,NaN,clock,bird,30,3666_ps_dnn_30_bird_10_n02028035_11961.png
cornet-s,4,307,NaN,bird,bird,30,3667_ps_dnn_30_bird_10_n01795545_954.png
cornet-s,4,308,NaN,bird,bird,30,3668_ps_dnn_30_bird_10_n01537544_13516.png
cornet-s,4,309,NaN,bird,bird,30,3669_ps_dnn_30_bird_10_n02018207_5808.png
cornet-s,4,310,NaN,bird,bird,30,3670_ps_dnn_30_bird_10_n01843383_4155.png
cornet-s,4,311,NaN,dog,dog,30,3671_ps_dnn_30_dog_10_n02090721_4984.png
cornet-s,4,312,NaN,dog,dog,30,3672_ps_dnn_30_dog_10_n02099601_13039.png
cornet-s,4,313,NaN,dog,dog,30,3673_ps_dnn_30_dog_10_n02110806_12258.png
cornet-s,4,314,NaN,dog,dog,30,3674_ps_dnn_30_dog_10_n02099712_1192.png
cornet-s,4,315,NaN,dog,dog,30,3675_ps_dnn_30_dog_10_n02100735_33.png
cornet-s,4,316,NaN,boat,dog,30,3676_ps_dnn_30_dog_10_n02099712_785.png
cornet-s,4,317,NaN,dog,dog,30,3677_ps_dnn_30_dog_10_n02104365_280.png
cornet-s,4,318,NaN,dog,dog,30,3678_ps_dnn_30_dog_10_n02113624_1801.png
cornet-s,4,319,NaN,dog,dog,30,3679_ps_dnn_30_dog_10_n02105251_1846.png
cornet-s,4,320,NaN,dog,dog,30,3680_ps_dnn_30_dog_10_n02100735_11862.png
cornet-s,4,321,NaN,knife,knife,60,3681_ps_dnn_60_knife_10_n03041632_30821.png
cornet-s,4,322,NaN,knife,knife,60,3682_ps_dnn_60_knife_10_n03041632_20194.png
cornet-s,4,323,NaN,knife,knife,60,3683_ps_dnn_60_knife_10_n03041632_105081.png
cornet-s,4,324,NaN,knife,knife,60,3684_ps_dnn_60_knife_10_n03041632_96345.png
cornet-s,4,325,NaN,clock,knife,60,3685_ps_dnn_60_knife_10_n03041632_94155.png
cornet-s,4,326,NaN,knife,knife,60,3686_ps_dnn_60_knife_10_n03041632_102764.png
cornet-s,4,327,NaN,knife,knife,60,3687_ps_dnn_60_knife_10_n03041632_3504.png
cornet-s,4,328,NaN,knife,knife,60,3688_ps_dnn_60_knife_10_n03041632_8468.png
cornet-s,4,329,NaN,knife,knife,60,3689_ps_dnn_60_knife_10_n03041632_86251.png
cornet-s,4,330,NaN,knife,knife,60,3690_ps_dnn_60_knife_10_n03041632_13478.png
cornet-s,4,331,NaN,keyboard,keyboard,60,3691_ps_dnn_60_keyboard_10_n04505470_4615.png
cornet-s,4,332,NaN,knife,keyboard,60,3692_ps_dnn_60_keyboard_10_n03085013_14237.png
cornet-s,4,333,NaN,keyboard,keyboard,60,3693_ps_dnn_60_keyboard_10_n04505470_3306.png
cornet-s,4,334,NaN,keyboard,keyboard,60,3694_ps_dnn_60_keyboard_10_n04505470_4711.png
cornet-s,4,335,NaN,keyboard,keyboard,60,3695_ps_dnn_60_keyboard_10_n04505470_8828.png
cornet-s,4,336,NaN,keyboard,keyboard,60,3696_ps_dnn_60_keyboard_10_n04505470_5059.png
cornet-s,4,337,NaN,keyboard,keyboard,60,3697_ps_dnn_60_keyboard_10_n04505470_2422.png
cornet-s,4,338,NaN,keyboard,keyboard,60,3698_ps_dnn_60_keyboard_10_n04505470_2606.png
cornet-s,4,339,NaN,bottle,keyboard,60,3699_ps_dnn_60_keyboard_10_n04505470_4761.png
cornet-s,4,340,NaN,cat,keyboard,60,3700_ps_dnn_60_keyboard_10_n03085013_22187.png
cornet-s,4,341,NaN,chair,elephant,60,3701_ps_dnn_60_elephant_10_n02504458_3432.png
cornet-s,4,342,NaN,elephant,elephant,60,3702_ps_dnn_60_elephant_10_n02504458_6817.png
cornet-s,4,343,NaN,clock,elephant,60,3703_ps_dnn_60_elephant_10_n02504013_5164.png
cornet-s,4,344,NaN,elephant,elephant,60,3704_ps_dnn_60_elephant_10_n02504013_10351.png
cornet-s,4,345,NaN,clock,elephant,60,3705_ps_dnn_60_elephant_10_n02504013_1900.png
cornet-s,4,346,NaN,boat,elephant,60,3706_ps_dnn_60_elephant_10_n02504458_5337.png
cornet-s,4,347,NaN,cat,elephant,60,3707_ps_dnn_60_elephant_10_n02504458_5369.png
cornet-s,4,348,NaN,elephant,elephant,60,3708_ps_dnn_60_elephant_10_n02504013_4686.png
cornet-s,4,349,NaN,elephant,elephant,60,3709_ps_dnn_60_elephant_10_n02504013_1763.png
cornet-s,4,350,NaN,boat,elephant,60,3710_ps_dnn_60_elephant_10_n02504458_1351.png
cornet-s,4,351,NaN,bicycle,bicycle,60,3711_ps_dnn_60_bicycle_10_n03792782_774.png
cornet-s,4,352,NaN,bicycle,bicycle,60,3712_ps_dnn_60_bicycle_10_n02835271_14914.png
cornet-s,4,353,NaN,bicycle,bicycle,60,3713_ps_dnn_60_bicycle_10_n03792782_6894.png
cornet-s,4,354,NaN,bicycle,bicycle,60,3714_ps_dnn_60_bicycle_10_n03792782_43328.png
cornet-s,4,355,NaN,bicycle,bicycle,60,3715_ps_dnn_60_bicycle_10_n03792782_5204.png
cornet-s,4,356,NaN,bicycle,bicycle,60,3716_ps_dnn_60_bicycle_10_n02835271_22263.png
cornet-s,4,357,NaN,bicycle,bicycle,60,3717_ps_dnn_60_bicycle_10_n03792782_17198.png
cornet-s,4,358,NaN,bicycle,bicycle,60,3718_ps_dnn_60_bicycle_10_n02835271_10271.png
cornet-s,4,359,NaN,bicycle,bicycle,60,3719_ps_dnn_60_bicycle_10_n02835271_3856.png
cornet-s,4,360,NaN,bicycle,bicycle,60,3720_ps_dnn_60_bicycle_10_n03792782_1424.png
cornet-s,4,361,NaN,airplane,airplane,60,3721_ps_dnn_60_airplane_10_n02690373_9535.png
cornet-s,4,362,NaN,airplane,airplane,60,3722_ps_dnn_60_airplane_10_n02690373_4706.png
cornet-s,4,363,NaN,airplane,airplane,60,3723_ps_dnn_60_airplane_10_n02690373_3840.png
cornet-s,4,364,NaN,airplane,airplane,60,3724_ps_dnn_60_airplane_10_n02690373_14117.png
cornet-s,4,365,NaN,airplane,airplane,60,3725_ps_dnn_60_airplane_10_n02690373_863.png
cornet-s,4,366,NaN,airplane,airplane,60,3726_ps_dnn_60_airplane_10_n02690373_3970.png
cornet-s,4,367,NaN,airplane,airplane,60,3727_ps_dnn_60_airplane_10_n02690373_5214.png
cornet-s,4,368,NaN,airplane,airplane,60,3728_ps_dnn_60_airplane_10_n02690373_3065.png
cornet-s,4,369,NaN,airplane,airplane,60,3729_ps_dnn_60_airplane_10_n02690373_3147.png
cornet-s,4,370,NaN,airplane,airplane,60,3730_ps_dnn_60_airplane_10_n02690373_3956.png
cornet-s,4,371,NaN,clock,clock,60,3731_ps_dnn_60_clock_10_n02708093_5551.png
cornet-s,4,372,NaN,clock,clock,60,3732_ps_dnn_60_clock_10_n03196217_3292.png
cornet-s,4,373,NaN,clock,clock,60,3733_ps_dnn_60_clock_10_n03196217_9786.png
cornet-s,4,374,NaN,clock,clock,60,3734_ps_dnn_60_clock_10_n04548280_4364.png
cornet-s,4,375,NaN,clock,clock,60,3735_ps_dnn_60_clock_10_n03196217_6881.png
cornet-s,4,376,NaN,clock,clock,60,3736_ps_dnn_60_clock_10_n02708093_4289.png
cornet-s,4,377,NaN,clock,clock,60,3737_ps_dnn_60_clock_10_n03196217_157.png
cornet-s,4,378,NaN,clock,clock,60,3738_ps_dnn_60_clock_10_n03196217_6236.png
cornet-s,4,379,NaN,clock,clock,60,3739_ps_dnn_60_clock_10_n04548280_2169.png
cornet-s,4,380,NaN,clock,clock,60,3740_ps_dnn_60_clock_10_n04548280_3677.png
cornet-s,4,381,NaN,oven,oven,60,3741_ps_dnn_60_oven_10_n04111531_4155.png
cornet-s,4,382,NaN,oven,oven,60,3742_ps_dnn_60_oven_10_n04111531_5357.png
cornet-s,4,383,NaN,oven,oven,60,3743_ps_dnn_60_oven_10_n04111531_2074.png
cornet-s,4,384,NaN,oven,oven,60,3744_ps_dnn_60_oven_10_n04111531_6489.png
cornet-s,4,385,NaN,oven,oven,60,3745_ps_dnn_60_oven_10_n04111531_21248.png
cornet-s,4,386,NaN,oven,oven,60,3746_ps_dnn_60_oven_10_n04111531_22291.png
cornet-s,4,387,NaN,chair,oven,60,3747_ps_dnn_60_oven_10_n04111531_10974.png
cornet-s,4,388,NaN,oven,oven,60,3748_ps_dnn_60_oven_10_n04111531_22466.png
cornet-s,4,389,NaN,oven,oven,60,3749_ps_dnn_60_oven_10_n04111531_190.png
cornet-s,4,390,NaN,oven,oven,60,3750_ps_dnn_60_oven_10_n04111531_23068.png
cornet-s,4,391,NaN,chair,chair,60,3751_ps_dnn_60_chair_10_n02791124_8162.png
cornet-s,4,392,NaN,clock,chair,60,3752_ps_dnn_60_chair_10_n02791124_4981.png
cornet-s,4,393,NaN,chair,chair,60,3753_ps_dnn_60_chair_10_n03376595_10382.png
cornet-s,4,394,NaN,chair,chair,60,3754_ps_dnn_60_chair_10_n03376595_9524.png
cornet-s,4,395,NaN,oven,chair,60,3755_ps_dnn_60_chair_10_n03376595_1601.png
cornet-s,4,396,NaN,chair,chair,60,3756_ps_dnn_60_chair_10_n04099969_2316.png
cornet-s,4,397,NaN,chair,chair,60,3757_ps_dnn_60_chair_10_n03376595_3624.png
cornet-s,4,398,NaN,chair,chair,60,3758_ps_dnn_60_chair_10_n04099969_1409.png
cornet-s,4,399,NaN,knife,chair,60,3759_ps_dnn_60_chair_10_n03376595_1719.png
cornet-s,4,400,NaN,chair,chair,60,3760_ps_dnn_60_chair_10_n02791124_15934.png
cornet-s,4,401,NaN,bear,bear,60,3761_ps_dnn_60_bear_10_n02132136_35749.png
cornet-s,4,402,NaN,bear,bear,60,3762_ps_dnn_60_bear_10_n02133161_3085.png
cornet-s,4,403,NaN,bear,bear,60,3763_ps_dnn_60_bear_10_n02134418_2434.png
cornet-s,4,404,NaN,bear,bear,60,3764_ps_dnn_60_bear_10_n02133161_92.png
cornet-s,4,405,NaN,bear,bear,60,3765_ps_dnn_60_bear_10_n02134418_10576.png
cornet-s,4,406,NaN,bear,bear,60,3766_ps_dnn_60_bear_10_n02134084_5475.png
cornet-s,4,407,NaN,bear,bear,60,3767_ps_dnn_60_bear_10_n02134084_12917.png
cornet-s,4,408,NaN,bear,bear,60,3768_ps_dnn_60_bear_10_n02132136_892.png
cornet-s,4,409,NaN,bear,bear,60,3769_ps_dnn_60_bear_10_n02133161_8662.png
cornet-s,4,410,NaN,elephant,bear,60,3770_ps_dnn_60_bear_10_n02132136_18001.png
cornet-s,4,411,NaN,boat,boat,60,3771_ps_dnn_60_boat_10_n04273569_7296.png
cornet-s,4,412,NaN,boat,boat,60,3772_ps_dnn_60_boat_10_n03662601_15781.png
cornet-s,4,413,NaN,chair,boat,60,3773_ps_dnn_60_boat_10_n02951358_5952.png
cornet-s,4,414,NaN,boat,boat,60,3774_ps_dnn_60_boat_10_n03662601_6221.png
cornet-s,4,415,NaN,boat,boat,60,3775_ps_dnn_60_boat_10_n04612504_6611.png
cornet-s,4,416,NaN,boat,boat,60,3776_ps_dnn_60_boat_10_n03344393_5712.png
cornet-s,4,417,NaN,boat,boat,60,3777_ps_dnn_60_boat_10_n03344393_3103.png
cornet-s,4,418,NaN,boat,boat,60,3778_ps_dnn_60_boat_10_n04273569_9677.png
cornet-s,4,419,NaN,boat,boat,60,3779_ps_dnn_60_boat_10_n04273569_13524.png
cornet-s,4,420,NaN,boat,boat,60,3780_ps_dnn_60_boat_10_n04612504_14113.png
cornet-s,4,421,NaN,elephant,cat,60,3781_ps_dnn_60_cat_10_n02123045_10866.png
cornet-s,4,422,NaN,cat,cat,60,3782_ps_dnn_60_cat_10_n02123045_12206.png
cornet-s,4,423,NaN,cat,cat,60,3783_ps_dnn_60_cat_10_n02125311_28447.png
cornet-s,4,424,NaN,cat,cat,60,3784_ps_dnn_60_cat_10_n02123045_7248.png
cornet-s,4,425,NaN,cat,cat,60,3785_ps_dnn_60_cat_10_n02123597_7009.png
cornet-s,4,426,NaN,cat,cat,60,3786_ps_dnn_60_cat_10_n02123159_7816.png
cornet-s,4,427,NaN,cat,cat,60,3787_ps_dnn_60_cat_10_n02123394_2411.png
cornet-s,4,428,NaN,cat,cat,60,3788_ps_dnn_60_cat_10_n02123045_1580.png
cornet-s,4,429,NaN,cat,cat,60,3789_ps_dnn_60_cat_10_n02125311_19891.png
cornet-s,4,430,NaN,cat,cat,60,3790_ps_dnn_60_cat_10_n02123394_9015.png
cornet-s,4,431,NaN,clock,bottle,60,3791_ps_dnn_60_bottle_10_n02823428_3469.png
cornet-s,4,432,NaN,airplane,bottle,60,3792_ps_dnn_60_bottle_10_n03937543_7230.png
cornet-s,4,433,NaN,bottle,bottle,60,3793_ps_dnn_60_bottle_10_n02823428_7034.png
cornet-s,4,434,NaN,bottle,bottle,60,3794_ps_dnn_60_bottle_10_n04591713_2903.png
cornet-s,4,435,NaN,bottle,bottle,60,3795_ps_dnn_60_bottle_10_n02823428_8307.png
cornet-s,4,436,NaN,bottle,bottle,60,3796_ps_dnn_60_bottle_10_n02823428_2657.png
cornet-s,4,437,NaN,bottle,bottle,60,3797_ps_dnn_60_bottle_10_n04557648_4663.png
cornet-s,4,438,NaN,bottle,bottle,60,3798_ps_dnn_60_bottle_10_n02823428_636.png
cornet-s,4,439,NaN,bottle,bottle,60,3799_ps_dnn_60_bottle_10_n03983396_5647.png
cornet-s,4,440,NaN,bottle,bottle,60,3800_ps_dnn_60_bottle_10_n02823428_4097.png
cornet-s,4,441,NaN,truck,truck,60,3801_ps_dnn_60_truck_10_n04467665_1425.png
cornet-s,4,442,NaN,truck,truck,60,3802_ps_dnn_60_truck_10_n03796401_10208.png
cornet-s,4,443,NaN,truck,truck,60,3803_ps_dnn_60_truck_10_n04467665_7180.png
cornet-s,4,444,NaN,truck,truck,60,3804_ps_dnn_60_truck_10_n03796401_5729.png
cornet-s,4,445,NaN,chair,truck,60,3805_ps_dnn_60_truck_10_n03796401_22759.png
cornet-s,4,446,NaN,truck,truck,60,3806_ps_dnn_60_truck_10_n03417042_2960.png
cornet-s,4,447,NaN,truck,truck,60,3807_ps_dnn_60_truck_10_n03796401_1691.png
cornet-s,4,448,NaN,truck,truck,60,3808_ps_dnn_60_truck_10_n04467665_79576.png
cornet-s,4,449,NaN,truck,truck,60,3809_ps_dnn_60_truck_10_n03417042_5634.png
cornet-s,4,450,NaN,clock,truck,60,3810_ps_dnn_60_truck_10_n03417042_16166.png
cornet-s,4,451,NaN,knife,car,60,3811_ps_dnn_60_car_10_n03100240_8203.png
cornet-s,4,452,NaN,car,car,60,3812_ps_dnn_60_car_10_n04285008_16647.png
cornet-s,4,453,NaN,car,car,60,3813_ps_dnn_60_car_10_n02814533_35.png
cornet-s,4,454,NaN,car,car,60,3814_ps_dnn_60_car_10_n03100240_11972.png
cornet-s,4,455,NaN,bicycle,car,60,3815_ps_dnn_60_car_10_n03100240_16598.png
cornet-s,4,456,NaN,car,car,60,3816_ps_dnn_60_car_10_n04285008_12423.png
cornet-s,4,457,NaN,boat,car,60,3817_ps_dnn_60_car_10_n03100240_2640.png
cornet-s,4,458,NaN,car,car,60,3818_ps_dnn_60_car_10_n03100240_5172.png
cornet-s,4,459,NaN,car,car,60,3819_ps_dnn_60_car_10_n02814533_10911.png
cornet-s,4,460,NaN,car,car,60,3820_ps_dnn_60_car_10_n02814533_25129.png
cornet-s,4,461,NaN,bird,bird,60,3821_ps_dnn_60_bird_10_n01820546_3352.png
cornet-s,4,462,NaN,bear,bird,60,3822_ps_dnn_60_bird_10_n01843383_3038.png
cornet-s,4,463,NaN,bird,bird,60,3823_ps_dnn_60_bird_10_n02051845_12655.png
cornet-s,4,464,NaN,bird,bird,60,3824_ps_dnn_60_bird_10_n01820546_3933.png
cornet-s,4,465,NaN,bird,bird,60,3825_ps_dnn_60_bird_10_n02056570_1195.png
cornet-s,4,466,NaN,cat,bird,60,3826_ps_dnn_60_bird_10_n01514859_13183.png
cornet-s,4,467,NaN,bear,bird,60,3827_ps_dnn_60_bird_10_n02056570_952.png
cornet-s,4,468,NaN,bird,bird,60,3828_ps_dnn_60_bird_10_n01537544_25226.png
cornet-s,4,469,NaN,bird,bird,60,3829_ps_dnn_60_bird_10_n01797886_13326.png
cornet-s,4,470,NaN,bird,bird,60,3830_ps_dnn_60_bird_10_n02017213_6182.png
cornet-s,4,471,NaN,elephant,dog,60,3831_ps_dnn_60_dog_10_n02108915_4214.png
cornet-s,4,472,NaN,dog,dog,60,3832_ps_dnn_60_dog_10_n02113712_984.png
cornet-s,4,473,NaN,dog,dog,60,3833_ps_dnn_60_dog_10_n02086910_14217.png
cornet-s,4,474,NaN,elephant,dog,60,3834_ps_dnn_60_dog_10_n02099712_5790.png
cornet-s,4,475,NaN,elephant,dog,60,3835_ps_dnn_60_dog_10_n02109525_11732.png
cornet-s,4,476,NaN,dog,dog,60,3836_ps_dnn_60_dog_10_n02096051_7.png
cornet-s,4,477,NaN,elephant,dog,60,3837_ps_dnn_60_dog_10_n02093256_20496.png
cornet-s,4,478,NaN,dog,dog,60,3838_ps_dnn_60_dog_10_n02106166_2940.png
cornet-s,4,479,NaN,dog,dog,60,3839_ps_dnn_60_dog_10_n02086079_16636.png
cornet-s,4,480,NaN,dog,dog,60,3840_ps_dnn_60_dog_10_n02100236_806.png
cornet-s,4,481,NaN,knife,knife,90,3841_ps_dnn_90_knife_10_n03041632_31909.png
cornet-s,4,482,NaN,knife,knife,90,3842_ps_dnn_90_knife_10_n03041632_84869.png
cornet-s,4,483,NaN,knife,knife,90,3843_ps_dnn_90_knife_10_n03041632_43436.png
cornet-s,4,484,NaN,knife,knife,90,3844_ps_dnn_90_knife_10_n03041632_50648.png
cornet-s,4,485,NaN,knife,knife,90,3845_ps_dnn_90_knife_10_n03041632_24561.png
cornet-s,4,486,NaN,knife,knife,90,3846_ps_dnn_90_knife_10_n03041632_32197.png
cornet-s,4,487,NaN,chair,knife,90,3847_ps_dnn_90_knife_10_n03041632_32048.png
cornet-s,4,488,NaN,boat,knife,90,3848_ps_dnn_90_knife_10_n03041632_35116.png
cornet-s,4,489,NaN,knife,knife,90,3849_ps_dnn_90_knife_10_n03041632_13194.png
cornet-s,4,490,NaN,elephant,knife,90,3850_ps_dnn_90_knife_10_n03041632_80829.png
cornet-s,4,491,NaN,clock,keyboard,90,3851_ps_dnn_90_keyboard_10_n03085013_21166.png
cornet-s,4,492,NaN,knife,keyboard,90,3852_ps_dnn_90_keyboard_10_n03085013_21277.png
cornet-s,4,493,NaN,keyboard,keyboard,90,3853_ps_dnn_90_keyboard_10_n04505470_659.png
cornet-s,4,494,NaN,elephant,keyboard,90,3854_ps_dnn_90_keyboard_10_n03085013_18214.png
cornet-s,4,495,NaN,clock,keyboard,90,3855_ps_dnn_90_keyboard_10_n03085013_18674.png
cornet-s,4,496,NaN,cat,keyboard,90,3856_ps_dnn_90_keyboard_10_n03085013_1193.png
cornet-s,4,497,NaN,knife,keyboard,90,3857_ps_dnn_90_keyboard_10_n03085013_23018.png
cornet-s,4,498,NaN,keyboard,keyboard,90,3858_ps_dnn_90_keyboard_10_n04505470_4651.png
cornet-s,4,499,NaN,keyboard,keyboard,90,3859_ps_dnn_90_keyboard_10_n04505470_7015.png
cornet-s,4,500,NaN,knife,keyboard,90,3860_ps_dnn_90_keyboard_10_n03085013_20923.png
cornet-s,4,501,NaN,elephant,elephant,90,3861_ps_dnn_90_elephant_10_n02504013_4485.png
cornet-s,4,502,NaN,boat,elephant,90,3862_ps_dnn_90_elephant_10_n02504013_7659.png
cornet-s,4,503,NaN,cat,elephant,90,3863_ps_dnn_90_elephant_10_n02504013_3300.png
cornet-s,4,504,NaN,elephant,elephant,90,3864_ps_dnn_90_elephant_10_n02504013_6223.png
cornet-s,4,505,NaN,elephant,elephant,90,3865_ps_dnn_90_elephant_10_n02504013_4247.png
cornet-s,4,506,NaN,elephant,elephant,90,3866_ps_dnn_90_elephant_10_n02504458_1445.png
cornet-s,4,507,NaN,elephant,elephant,90,3867_ps_dnn_90_elephant_10_n02504458_6906.png
cornet-s,4,508,NaN,bicycle,elephant,90,3868_ps_dnn_90_elephant_10_n02504013_1986.png
cornet-s,4,509,NaN,elephant,elephant,90,3869_ps_dnn_90_elephant_10_n02504458_11289.png
cornet-s,4,510,NaN,knife,elephant,90,3870_ps_dnn_90_elephant_10_n02504013_6465.png
cornet-s,4,511,NaN,bicycle,bicycle,90,3871_ps_dnn_90_bicycle_10_n03792782_13541.png
cornet-s,4,512,NaN,cat,bicycle,90,3872_ps_dnn_90_bicycle_10_n02835271_20975.png
cornet-s,4,513,NaN,bicycle,bicycle,90,3873_ps_dnn_90_bicycle_10_n03792782_29606.png
cornet-s,4,514,NaN,bicycle,bicycle,90,3874_ps_dnn_90_bicycle_10_n03792782_19525.png
cornet-s,4,515,NaN,bicycle,bicycle,90,3875_ps_dnn_90_bicycle_10_n03792782_4102.png
cornet-s,4,516,NaN,bicycle,bicycle,90,3876_ps_dnn_90_bicycle_10_n03792782_13324.png
cornet-s,4,517,NaN,bicycle,bicycle,90,3877_ps_dnn_90_bicycle_10_n03792782_67167.png
cornet-s,4,518,NaN,bicycle,bicycle,90,3878_ps_dnn_90_bicycle_10_n02835271_16182.png
cornet-s,4,519,NaN,bicycle,bicycle,90,3879_ps_dnn_90_bicycle_10_n03792782_11625.png
cornet-s,4,520,NaN,elephant,bicycle,90,3880_ps_dnn_90_bicycle_10_n02835271_8287.png
cornet-s,4,521,NaN,airplane,airplane,90,3881_ps_dnn_90_airplane_10_n02690373_6674.png
cornet-s,4,522,NaN,airplane,airplane,90,3882_ps_dnn_90_airplane_10_n02690373_9718.png
cornet-s,4,523,NaN,airplane,airplane,90,3883_ps_dnn_90_airplane_10_n02690373_13613.png
cornet-s,4,524,NaN,airplane,airplane,90,3884_ps_dnn_90_airplane_10_n02690373_1005.png
cornet-s,4,525,NaN,airplane,airplane,90,3885_ps_dnn_90_airplane_10_n02690373_6845.png
cornet-s,4,526,NaN,airplane,airplane,90,3886_ps_dnn_90_airplane_10_n02690373_19329.png
cornet-s,4,527,NaN,boat,airplane,90,3887_ps_dnn_90_airplane_10_n02690373_9659.png
cornet-s,4,528,NaN,airplane,airplane,90,3888_ps_dnn_90_airplane_10_n02690373_1862.png
cornet-s,4,529,NaN,knife,airplane,90,3889_ps_dnn_90_airplane_10_n02690373_4009.png
cornet-s,4,530,NaN,airplane,airplane,90,3890_ps_dnn_90_airplane_10_n02690373_4029.png
cornet-s,4,531,NaN,clock,clock,90,3891_ps_dnn_90_clock_10_n04548280_596.png
cornet-s,4,532,NaN,clock,clock,90,3892_ps_dnn_90_clock_10_n02708093_8002.png
cornet-s,4,533,NaN,knife,clock,90,3893_ps_dnn_90_clock_10_n02708093_2020.png
cornet-s,4,534,NaN,clock,clock,90,3894_ps_dnn_90_clock_10_n04548280_6099.png
cornet-s,4,535,NaN,knife,clock,90,3895_ps_dnn_90_clock_10_n02708093_6734.png
cornet-s,4,536,NaN,clock,clock,90,3896_ps_dnn_90_clock_10_n02708093_5803.png
cornet-s,4,537,NaN,clock,clock,90,3897_ps_dnn_90_clock_10_n02708093_3577.png
cornet-s,4,538,NaN,clock,clock,90,3898_ps_dnn_90_clock_10_n04548280_1200.png
cornet-s,4,539,NaN,clock,clock,90,3899_ps_dnn_90_clock_10_n02708093_5158.png
cornet-s,4,540,NaN,clock,clock,90,3900_ps_dnn_90_clock_10_n04548280_1240.png
cornet-s,4,541,NaN,oven,oven,90,3901_ps_dnn_90_oven_10_n04111531_17781.png
cornet-s,4,542,NaN,chair,oven,90,3902_ps_dnn_90_oven_10_n04111531_16198.png
cornet-s,4,543,NaN,oven,oven,90,3903_ps_dnn_90_oven_10_n04111531_2350.png
cornet-s,4,544,NaN,oven,oven,90,3904_ps_dnn_90_oven_10_n04111531_3777.png
cornet-s,4,545,NaN,clock,oven,90,3905_ps_dnn_90_oven_10_n04111531_8531.png
cornet-s,4,546,NaN,oven,oven,90,3906_ps_dnn_90_oven_10_n04111531_3348.png
cornet-s,4,547,NaN,cat,oven,90,3907_ps_dnn_90_oven_10_n04111531_1798.png
cornet-s,4,548,NaN,oven,oven,90,3908_ps_dnn_90_oven_10_n04111531_16696.png
cornet-s,4,549,NaN,oven,oven,90,3909_ps_dnn_90_oven_10_n04111531_7168.png
cornet-s,4,550,NaN,bicycle,oven,90,3910_ps_dnn_90_oven_10_n04111531_10419.png
cornet-s,4,551,NaN,chair,chair,90,3911_ps_dnn_90_chair_10_n02791124_16913.png
cornet-s,4,552,NaN,boat,chair,90,3912_ps_dnn_90_chair_10_n03376595_839.png
cornet-s,4,553,NaN,clock,chair,90,3913_ps_dnn_90_chair_10_n02791124_6390.png
cornet-s,4,554,NaN,chair,chair,90,3914_ps_dnn_90_chair_10_n03376595_4912.png
cornet-s,4,555,NaN,chair,chair,90,3915_ps_dnn_90_chair_10_n02791124_139.png
cornet-s,4,556,NaN,chair,chair,90,3916_ps_dnn_90_chair_10_n04099969_3109.png
cornet-s,4,557,NaN,chair,chair,90,3917_ps_dnn_90_chair_10_n04429376_9916.png
cornet-s,4,558,NaN,elephant,chair,90,3918_ps_dnn_90_chair_10_n04099969_2127.png
cornet-s,4,559,NaN,oven,chair,90,3919_ps_dnn_90_chair_10_n04429376_1169.png
cornet-s,4,560,NaN,chair,chair,90,3920_ps_dnn_90_chair_10_n04099969_7054.png
cornet-s,4,561,NaN,bear,bear,90,3921_ps_dnn_90_bear_10_n02133161_334.png
cornet-s,4,562,NaN,bear,bear,90,3922_ps_dnn_90_bear_10_n02134084_8054.png
cornet-s,4,563,NaN,bicycle,bear,90,3923_ps_dnn_90_bear_10_n02134084_474.png
cornet-s,4,564,NaN,cat,bear,90,3924_ps_dnn_90_bear_10_n02132136_1621.png
cornet-s,4,565,NaN,cat,bear,90,3925_ps_dnn_90_bear_10_n02134418_4076.png
cornet-s,4,566,NaN,dog,bear,90,3926_ps_dnn_90_bear_10_n02133161_1872.png
cornet-s,4,567,NaN,bear,bear,90,3927_ps_dnn_90_bear_10_n02134084_9176.png
cornet-s,4,568,NaN,bear,bear,90,3928_ps_dnn_90_bear_10_n02133161_9583.png
cornet-s,4,569,NaN,bear,bear,90,3929_ps_dnn_90_bear_10_n02132136_3202.png
cornet-s,4,570,NaN,bear,bear,90,3930_ps_dnn_90_bear_10_n02132136_4271.png
cornet-s,4,571,NaN,boat,boat,90,3931_ps_dnn_90_boat_10_n02951358_15124.png
cornet-s,4,572,NaN,boat,boat,90,3932_ps_dnn_90_boat_10_n02951358_7581.png
cornet-s,4,573,NaN,boat,boat,90,3933_ps_dnn_90_boat_10_n02951358_34786.png
cornet-s,4,574,NaN,boat,boat,90,3934_ps_dnn_90_boat_10_n02951358_14839.png
cornet-s,4,575,NaN,boat,boat,90,3935_ps_dnn_90_boat_10_n02951358_5295.png
cornet-s,4,576,NaN,boat,boat,90,3936_ps_dnn_90_boat_10_n04612504_17263.png
cornet-s,4,577,NaN,boat,boat,90,3937_ps_dnn_90_boat_10_n04612504_13446.png
cornet-s,4,578,NaN,bear,boat,90,3938_ps_dnn_90_boat_10_n04273569_6052.png
cornet-s,4,579,NaN,boat,boat,90,3939_ps_dnn_90_boat_10_n04273569_219.png
cornet-s,4,580,NaN,boat,boat,90,3940_ps_dnn_90_boat_10_n02951358_35651.png
cornet-s,4,581,NaN,cat,cat,90,3941_ps_dnn_90_cat_10_n02124075_4453.png
cornet-s,4,582,NaN,cat,cat,90,3942_ps_dnn_90_cat_10_n02125311_23118.png
cornet-s,4,583,NaN,cat,cat,90,3943_ps_dnn_90_cat_10_n02123159_6654.png
cornet-s,4,584,NaN,cat,cat,90,3944_ps_dnn_90_cat_10_n02123597_6706.png
cornet-s,4,585,NaN,cat,cat,90,3945_ps_dnn_90_cat_10_n02123394_2063.png
cornet-s,4,586,NaN,cat,cat,90,3946_ps_dnn_90_cat_10_n02123159_407.png
cornet-s,4,587,NaN,bicycle,cat,90,3947_ps_dnn_90_cat_10_n02125311_11424.png
cornet-s,4,588,NaN,cat,cat,90,3948_ps_dnn_90_cat_10_n02123597_13784.png
cornet-s,4,589,NaN,cat,cat,90,3949_ps_dnn_90_cat_10_n02125311_19535.png
cornet-s,4,590,NaN,cat,cat,90,3950_ps_dnn_90_cat_10_n02123045_1105.png
cornet-s,4,591,NaN,bottle,bottle,90,3951_ps_dnn_90_bottle_10_n04557648_6315.png
cornet-s,4,592,NaN,bottle,bottle,90,3952_ps_dnn_90_bottle_10_n04591713_3605.png
cornet-s,4,593,NaN,clock,bottle,90,3953_ps_dnn_90_bottle_10_n04591713_2129.png
cornet-s,4,594,NaN,bottle,bottle,90,3954_ps_dnn_90_bottle_10_n04560804_32775.png
cornet-s,4,595,NaN,bottle,bottle,90,3955_ps_dnn_90_bottle_10_n03937543_844.png
cornet-s,4,596,NaN,bottle,bottle,90,3956_ps_dnn_90_bottle_10_n04579145_2471.png
cornet-s,4,597,NaN,bottle,bottle,90,3957_ps_dnn_90_bottle_10_n03983396_20591.png
cornet-s,4,598,NaN,bottle,bottle,90,3958_ps_dnn_90_bottle_10_n04591713_4184.png
cornet-s,4,599,NaN,clock,bottle,90,3959_ps_dnn_90_bottle_10_n04579145_6578.png
cornet-s,4,600,NaN,clock,bottle,90,3960_ps_dnn_90_bottle_10_n04591713_6980.png
cornet-s,4,601,NaN,truck,truck,90,3961_ps_dnn_90_truck_10_n03417042_1875.png
cornet-s,4,602,NaN,bear,truck,90,3962_ps_dnn_90_truck_10_n04467665_30588.png
cornet-s,4,603,NaN,truck,truck,90,3963_ps_dnn_90_truck_10_n04467665_24756.png
cornet-s,4,604,NaN,chair,truck,90,3964_ps_dnn_90_truck_10_n03417042_5225.png
cornet-s,4,605,NaN,clock,truck,90,3965_ps_dnn_90_truck_10_n03796401_4450.png
cornet-s,4,606,NaN,clock,truck,90,3966_ps_dnn_90_truck_10_n03796401_1758.png
cornet-s,4,607,NaN,boat,truck,90,3967_ps_dnn_90_truck_10_n03417042_7544.png
cornet-s,4,608,NaN,truck,truck,90,3968_ps_dnn_90_truck_10_n04467665_66535.png
cornet-s,4,609,NaN,chair,truck,90,3969_ps_dnn_90_truck_10_n03417042_1015.png
cornet-s,4,610,NaN,boat,truck,90,3970_ps_dnn_90_truck_10_n03796401_25102.png
cornet-s,4,611,NaN,boat,car,90,3971_ps_dnn_90_car_10_n02814533_27588.png
cornet-s,4,612,NaN,truck,car,90,3972_ps_dnn_90_car_10_n02814533_1619.png
cornet-s,4,613,NaN,truck,car,90,3973_ps_dnn_90_car_10_n03100240_18421.png
cornet-s,4,614,NaN,truck,car,90,3974_ps_dnn_90_car_10_n02814533_51647.png
cornet-s,4,615,NaN,boat,car,90,3975_ps_dnn_90_car_10_n02814533_84354.png
cornet-s,4,616,NaN,car,car,90,3976_ps_dnn_90_car_10_n03100240_6243.png
cornet-s,4,617,NaN,car,car,90,3977_ps_dnn_90_car_10_n03100240_1326.png
cornet-s,4,618,NaN,oven,car,90,3978_ps_dnn_90_car_10_n02814533_92353.png
cornet-s,4,619,NaN,truck,car,90,3979_ps_dnn_90_car_10_n02814533_15651.png
cornet-s,4,620,NaN,boat,car,90,3980_ps_dnn_90_car_10_n04285008_2081.png
cornet-s,4,621,NaN,bird,bird,90,3981_ps_dnn_90_bird_10_n01601694_16593.png
cornet-s,4,622,NaN,bear,bird,90,3982_ps_dnn_90_bird_10_n02006656_3185.png
cornet-s,4,623,NaN,bird,bird,90,3983_ps_dnn_90_bird_10_n02028035_23605.png
cornet-s,4,624,NaN,knife,bird,90,3984_ps_dnn_90_bird_10_n01843383_6980.png
cornet-s,4,625,NaN,bird,bird,90,3985_ps_dnn_90_bird_10_n01592084_5179.png
cornet-s,4,626,NaN,bird,bird,90,3986_ps_dnn_90_bird_10_n01843065_9424.png
cornet-s,4,627,NaN,bottle,bird,90,3987_ps_dnn_90_bird_10_n02056570_6936.png
cornet-s,4,628,NaN,boat,bird,90,3988_ps_dnn_90_bird_10_n02018207_141.png
cornet-s,4,629,NaN,bear,bird,90,3989_ps_dnn_90_bird_10_n01796340_2456.png
cornet-s,4,630,NaN,bear,bird,90,3990_ps_dnn_90_bird_10_n01798484_13486.png
cornet-s,4,631,NaN,dog,dog,90,3991_ps_dnn_90_dog_10_n02102318_11051.png
cornet-s,4,632,NaN,bear,dog,90,3992_ps_dnn_90_dog_10_n02097298_5605.png
cornet-s,4,633,NaN,elephant,dog,90,3993_ps_dnn_90_dog_10_n02093859_4185.png
cornet-s,4,634,NaN,elephant,dog,90,3994_ps_dnn_90_dog_10_n02105251_3424.png
cornet-s,4,635,NaN,bear,dog,90,3995_ps_dnn_90_dog_10_n02088632_2837.png
cornet-s,4,636,NaN,dog,dog,90,3996_ps_dnn_90_dog_10_n02102040_108.png
cornet-s,4,637,NaN,elephant,dog,90,3997_ps_dnn_90_dog_10_n02088238_6602.png
cornet-s,4,638,NaN,elephant,dog,90,3998_ps_dnn_90_dog_10_n02088466_12238.png
cornet-s,4,639,NaN,elephant,dog,90,3999_ps_dnn_90_dog_10_n02093428_7924.png
cornet-s,4,640,NaN,dog,dog,90,4000_ps_dnn_90_dog_10_n02107908_12088.png
cornet-s,4,641,NaN,knife,knife,120,4001_ps_dnn_120_knife_10_n03041632_22988.png
cornet-s,4,642,NaN,knife,knife,120,4002_ps_dnn_120_knife_10_n03041632_3247.png
cornet-s,4,643,NaN,oven,knife,120,4003_ps_dnn_120_knife_10_n03041632_40508.png
cornet-s,4,644,NaN,knife,knife,120,4004_ps_dnn_120_knife_10_n03041632_11969.png
cornet-s,4,645,NaN,knife,knife,120,4005_ps_dnn_120_knife_10_n03041632_45338.png
cornet-s,4,646,NaN,cat,knife,120,4006_ps_dnn_120_knife_10_n03041632_105581.png
cornet-s,4,647,NaN,knife,knife,120,4007_ps_dnn_120_knife_10_n03041632_56172.png
cornet-s,4,648,NaN,bicycle,knife,120,4008_ps_dnn_120_knife_10_n03041632_20217.png
cornet-s,4,649,NaN,cat,knife,120,4009_ps_dnn_120_knife_10_n03041632_82878.png
cornet-s,4,650,NaN,knife,knife,120,4010_ps_dnn_120_knife_10_n03041632_20413.png
cornet-s,4,651,NaN,knife,keyboard,120,4011_ps_dnn_120_keyboard_10_n03085013_15995.png
cornet-s,4,652,NaN,dog,keyboard,120,4012_ps_dnn_120_keyboard_10_n03085013_21807.png
cornet-s,4,653,NaN,boat,keyboard,120,4013_ps_dnn_120_keyboard_10_n04505470_3071.png
cornet-s,4,654,NaN,knife,keyboard,120,4014_ps_dnn_120_keyboard_10_n03085013_2676.png
cornet-s,4,655,NaN,keyboard,keyboard,120,4015_ps_dnn_120_keyboard_10_n04505470_4515.png
cornet-s,4,656,NaN,clock,keyboard,120,4016_ps_dnn_120_keyboard_10_n04505470_489.png
cornet-s,4,657,NaN,oven,keyboard,120,4017_ps_dnn_120_keyboard_10_n03085013_16636.png
cornet-s,4,658,NaN,cat,keyboard,120,4018_ps_dnn_120_keyboard_10_n03085013_5726.png
cornet-s,4,659,NaN,knife,keyboard,120,4019_ps_dnn_120_keyboard_10_n03085013_24150.png
cornet-s,4,660,NaN,keyboard,keyboard,120,4020_ps_dnn_120_keyboard_10_n04505470_4951.png
cornet-s,4,661,NaN,elephant,elephant,120,4021_ps_dnn_120_elephant_10_n02504013_10437.png
cornet-s,4,662,NaN,elephant,elephant,120,4022_ps_dnn_120_elephant_10_n02504458_12191.png
cornet-s,4,663,NaN,cat,elephant,120,4023_ps_dnn_120_elephant_10_n02504458_12582.png
cornet-s,4,664,NaN,boat,elephant,120,4024_ps_dnn_120_elephant_10_n02504458_2264.png
cornet-s,4,665,NaN,elephant,elephant,120,4025_ps_dnn_120_elephant_10_n02504458_6909.png
cornet-s,4,666,NaN,chair,elephant,120,4026_ps_dnn_120_elephant_10_n02504013_8930.png
cornet-s,4,667,NaN,elephant,elephant,120,4027_ps_dnn_120_elephant_10_n02504458_11511.png
cornet-s,4,668,NaN,cat,elephant,120,4028_ps_dnn_120_elephant_10_n02504013_9566.png
cornet-s,4,669,NaN,bird,elephant,120,4029_ps_dnn_120_elephant_10_n02504013_7497.png
cornet-s,4,670,NaN,elephant,elephant,120,4030_ps_dnn_120_elephant_10_n02504013_9362.png
cornet-s,4,671,NaN,knife,bicycle,120,4031_ps_dnn_120_bicycle_10_n02835271_2686.png
cornet-s,4,672,NaN,clock,bicycle,120,4032_ps_dnn_120_bicycle_10_n02835271_8549.png
cornet-s,4,673,NaN,bicycle,bicycle,120,4033_ps_dnn_120_bicycle_10_n02835271_14361.png
cornet-s,4,674,NaN,elephant,bicycle,120,4034_ps_dnn_120_bicycle_10_n02835271_23173.png
cornet-s,4,675,NaN,bicycle,bicycle,120,4035_ps_dnn_120_bicycle_10_n02835271_20099.png
cornet-s,4,676,NaN,elephant,bicycle,120,4036_ps_dnn_120_bicycle_10_n02835271_12843.png
cornet-s,4,677,NaN,elephant,bicycle,120,4037_ps_dnn_120_bicycle_10_n02835271_6481.png
cornet-s,4,678,NaN,boat,bicycle,120,4038_ps_dnn_120_bicycle_10_n03792782_3202.png
cornet-s,4,679,NaN,elephant,bicycle,120,4039_ps_dnn_120_bicycle_10_n03792782_15059.png
cornet-s,4,680,NaN,elephant,bicycle,120,4040_ps_dnn_120_bicycle_10_n03792782_2263.png
cornet-s,4,681,NaN,knife,airplane,120,4041_ps_dnn_120_airplane_10_n02690373_9.png
cornet-s,4,682,NaN,boat,airplane,120,4042_ps_dnn_120_airplane_10_n02690373_13609.png
cornet-s,4,683,NaN,knife,airplane,120,4043_ps_dnn_120_airplane_10_n02690373_8613.png
cornet-s,4,684,NaN,airplane,airplane,120,4044_ps_dnn_120_airplane_10_n02690373_757.png
cornet-s,4,685,NaN,airplane,airplane,120,4045_ps_dnn_120_airplane_10_n02690373_4945.png
cornet-s,4,686,NaN,airplane,airplane,120,4046_ps_dnn_120_airplane_10_n02690373_3750.png
cornet-s,4,687,NaN,bear,airplane,120,4047_ps_dnn_120_airplane_10_n02690373_1074.png
cornet-s,4,688,NaN,airplane,airplane,120,4048_ps_dnn_120_airplane_10_n02690373_2750.png
cornet-s,4,689,NaN,airplane,airplane,120,4049_ps_dnn_120_airplane_10_n02690373_4144.png
cornet-s,4,690,NaN,boat,airplane,120,4050_ps_dnn_120_airplane_10_n02690373_5992.png
cornet-s,4,691,NaN,dog,clock,120,4051_ps_dnn_120_clock_10_n04548280_4.png
cornet-s,4,692,NaN,knife,clock,120,4052_ps_dnn_120_clock_10_n04548280_5074.png
cornet-s,4,693,NaN,clock,clock,120,4053_ps_dnn_120_clock_10_n04548280_98.png
cornet-s,4,694,NaN,knife,clock,120,4054_ps_dnn_120_clock_10_n04548280_2451.png
cornet-s,4,695,NaN,knife,clock,120,4055_ps_dnn_120_clock_10_n03196217_4434.png
cornet-s,4,696,NaN,clock,clock,120,4056_ps_dnn_120_clock_10_n04548280_3047.png
cornet-s,4,697,NaN,bicycle,clock,120,4057_ps_dnn_120_clock_10_n04548280_3234.png
cornet-s,4,698,NaN,bottle,clock,120,4058_ps_dnn_120_clock_10_n02708093_1282.png
cornet-s,4,699,NaN,clock,clock,120,4059_ps_dnn_120_clock_10_n02708093_148.png
cornet-s,4,700,NaN,clock,clock,120,4060_ps_dnn_120_clock_10_n04548280_4354.png
cornet-s,4,701,NaN,cat,oven,120,4061_ps_dnn_120_oven_10_n04111531_5429.png
cornet-s,4,702,NaN,dog,oven,120,4062_ps_dnn_120_oven_10_n04111531_9178.png
cornet-s,4,703,NaN,cat,oven,120,4063_ps_dnn_120_oven_10_n04111531_9867.png
cornet-s,4,704,NaN,bicycle,oven,120,4064_ps_dnn_120_oven_10_n04111531_22704.png
cornet-s,4,705,NaN,bear,oven,120,4065_ps_dnn_120_oven_10_n04111531_10220.png
cornet-s,4,706,NaN,oven,oven,120,4066_ps_dnn_120_oven_10_n04111531_4332.png
cornet-s,4,707,NaN,cat,oven,120,4067_ps_dnn_120_oven_10_n04111531_3072.png
cornet-s,4,708,NaN,cat,oven,120,4068_ps_dnn_120_oven_10_n04111531_1612.png
cornet-s,4,709,NaN,bicycle,oven,120,4069_ps_dnn_120_oven_10_n04111531_891.png
cornet-s,4,710,NaN,clock,oven,120,4070_ps_dnn_120_oven_10_n04111531_8917.png
cornet-s,4,711,NaN,cat,chair,120,4071_ps_dnn_120_chair_10_n02791124_5822.png
cornet-s,4,712,NaN,oven,chair,120,4072_ps_dnn_120_chair_10_n02791124_4174.png
cornet-s,4,713,NaN,bear,chair,120,4073_ps_dnn_120_chair_10_n04099969_16159.png
cornet-s,4,714,NaN,elephant,chair,120,4074_ps_dnn_120_chair_10_n03376595_3268.png
cornet-s,4,715,NaN,knife,chair,120,4075_ps_dnn_120_chair_10_n04099969_12099.png
cornet-s,4,716,NaN,knife,chair,120,4076_ps_dnn_120_chair_10_n03376595_17211.png
cornet-s,4,717,NaN,cat,chair,120,4077_ps_dnn_120_chair_10_n02791124_15675.png
cornet-s,4,718,NaN,boat,chair,120,4078_ps_dnn_120_chair_10_n04429376_2592.png
cornet-s,4,719,NaN,clock,chair,120,4079_ps_dnn_120_chair_10_n04429376_10597.png
cornet-s,4,720,NaN,bear,chair,120,4080_ps_dnn_120_chair_10_n03376595_9079.png
cornet-s,4,721,NaN,bear,bear,120,4081_ps_dnn_120_bear_10_n02134084_4818.png
cornet-s,4,722,NaN,knife,bear,120,4082_ps_dnn_120_bear_10_n02134084_404.png
cornet-s,4,723,NaN,bear,bear,120,4083_ps_dnn_120_bear_10_n02132136_1795.png
cornet-s,4,724,NaN,truck,bear,120,4084_ps_dnn_120_bear_10_n02134418_4042.png
cornet-s,4,725,NaN,elephant,bear,120,4085_ps_dnn_120_bear_10_n02134084_6845.png
cornet-s,4,726,NaN,elephant,bear,120,4086_ps_dnn_120_bear_10_n02134084_7649.png
cornet-s,4,727,NaN,chair,bear,120,4087_ps_dnn_120_bear_10_n02133161_3181.png
cornet-s,4,728,NaN,boat,bear,120,4088_ps_dnn_120_bear_10_n02134418_1153.png
cornet-s,4,729,NaN,bicycle,bear,120,4089_ps_dnn_120_bear_10_n02132136_5138.png
cornet-s,4,730,NaN,chair,bear,120,4090_ps_dnn_120_bear_10_n02133161_1892.png
cornet-s,4,731,NaN,elephant,boat,120,4091_ps_dnn_120_boat_10_n02951358_6378.png
cornet-s,4,732,NaN,cat,boat,120,4092_ps_dnn_120_boat_10_n03344393_2412.png
cornet-s,4,733,NaN,boat,boat,120,4093_ps_dnn_120_boat_10_n03662601_4844.png
cornet-s,4,734,NaN,bicycle,boat,120,4094_ps_dnn_120_boat_10_n03662601_3984.png
cornet-s,4,735,NaN,bear,boat,120,4095_ps_dnn_120_boat_10_n03662601_2052.png
cornet-s,4,736,NaN,knife,boat,120,4096_ps_dnn_120_boat_10_n03344393_4412.png
cornet-s,4,737,NaN,bicycle,boat,120,4097_ps_dnn_120_boat_10_n03662601_5849.png
cornet-s,4,738,NaN,knife,boat,120,4098_ps_dnn_120_boat_10_n03344393_6505.png
cornet-s,4,739,NaN,boat,boat,120,4099_ps_dnn_120_boat_10_n03344393_1422.png
cornet-s,4,740,NaN,boat,boat,120,4100_ps_dnn_120_boat_10_n03662601_5118.png
cornet-s,4,741,NaN,bicycle,cat,120,4101_ps_dnn_120_cat_10_n02123045_11601.png
cornet-s,4,742,NaN,knife,cat,120,4102_ps_dnn_120_cat_10_n02123159_6046.png
cornet-s,4,743,NaN,bear,cat,120,4103_ps_dnn_120_cat_10_n02123159_3918.png
cornet-s,4,744,NaN,bicycle,cat,120,4104_ps_dnn_120_cat_10_n02123045_1529.png
cornet-s,4,745,NaN,cat,cat,120,4105_ps_dnn_120_cat_10_n02123597_3501.png
cornet-s,4,746,NaN,cat,cat,120,4106_ps_dnn_120_cat_10_n02123394_5708.png
cornet-s,4,747,NaN,cat,cat,120,4107_ps_dnn_120_cat_10_n02125311_42530.png
cornet-s,4,748,NaN,cat,cat,120,4108_ps_dnn_120_cat_10_n02124075_4649.png
cornet-s,4,749,NaN,chair,cat,120,4109_ps_dnn_120_cat_10_n02123394_2434.png
cornet-s,4,750,NaN,bear,cat,120,4110_ps_dnn_120_cat_10_n02123597_4800.png
cornet-s,4,751,NaN,bottle,bottle,120,4111_ps_dnn_120_bottle_10_n04579145_3112.png
cornet-s,4,752,NaN,cat,bottle,120,4112_ps_dnn_120_bottle_10_n04591713_9352.png
cornet-s,4,753,NaN,elephant,bottle,120,4113_ps_dnn_120_bottle_10_n04560804_21983.png
cornet-s,4,754,NaN,dog,bottle,120,4114_ps_dnn_120_bottle_10_n03983396_3526.png
cornet-s,4,755,NaN,oven,bottle,120,4115_ps_dnn_120_bottle_10_n03983396_7361.png
cornet-s,4,756,NaN,bottle,bottle,120,4116_ps_dnn_120_bottle_10_n03983396_168.png
cornet-s,4,757,NaN,cat,bottle,120,4117_ps_dnn_120_bottle_10_n04579145_5795.png
cornet-s,4,758,NaN,oven,bottle,120,4118_ps_dnn_120_bottle_10_n03983396_6555.png
cornet-s,4,759,NaN,bicycle,bottle,120,4119_ps_dnn_120_bottle_10_n04591713_3399.png
cornet-s,4,760,NaN,dog,bottle,120,4120_ps_dnn_120_bottle_10_n02823428_14897.png
cornet-s,4,761,NaN,boat,truck,120,4121_ps_dnn_120_truck_10_n04467665_2559.png
cornet-s,4,762,NaN,boat,truck,120,4122_ps_dnn_120_truck_10_n04467665_10060.png
cornet-s,4,763,NaN,oven,truck,120,4123_ps_dnn_120_truck_10_n03417042_14567.png
cornet-s,4,764,NaN,oven,truck,120,4124_ps_dnn_120_truck_10_n04467665_48928.png
cornet-s,4,765,NaN,bicycle,truck,120,4125_ps_dnn_120_truck_10_n03796401_12028.png
cornet-s,4,766,NaN,bicycle,truck,120,4126_ps_dnn_120_truck_10_n03417042_8872.png
cornet-s,4,767,NaN,bicycle,truck,120,4127_ps_dnn_120_truck_10_n03417042_22297.png
cornet-s,4,768,NaN,oven,truck,120,4128_ps_dnn_120_truck_10_n03417042_7204.png
cornet-s,4,769,NaN,chair,truck,120,4129_ps_dnn_120_truck_10_n03417042_3003.png
cornet-s,4,770,NaN,bear,truck,120,4130_ps_dnn_120_truck_10_n03796401_588.png
cornet-s,4,771,NaN,oven,car,120,4131_ps_dnn_120_car_10_n03100240_17986.png
cornet-s,4,772,NaN,boat,car,120,4132_ps_dnn_120_car_10_n04285008_9675.png
cornet-s,4,773,NaN,bicycle,car,120,4133_ps_dnn_120_car_10_n03100240_966.png
cornet-s,4,774,NaN,bicycle,car,120,4134_ps_dnn_120_car_10_n04285008_1573.png
cornet-s,4,775,NaN,bicycle,car,120,4135_ps_dnn_120_car_10_n02814533_5357.png
cornet-s,4,776,NaN,bicycle,car,120,4136_ps_dnn_120_car_10_n04285008_903.png
cornet-s,4,777,NaN,knife,car,120,4137_ps_dnn_120_car_10_n02814533_76739.png
cornet-s,4,778,NaN,bicycle,car,120,4138_ps_dnn_120_car_10_n04285008_6313.png
cornet-s,4,779,NaN,cat,car,120,4139_ps_dnn_120_car_10_n02814533_39823.png
cornet-s,4,780,NaN,truck,car,120,4140_ps_dnn_120_car_10_n03100240_8113.png
cornet-s,4,781,NaN,clock,bird,120,4141_ps_dnn_120_bird_10_n01560419_751.png
cornet-s,4,782,NaN,bird,bird,120,4142_ps_dnn_120_bird_10_n02018207_5441.png
cornet-s,4,783,NaN,elephant,bird,120,4143_ps_dnn_120_bird_10_n01558993_11761.png
cornet-s,4,784,NaN,bicycle,bird,120,4144_ps_dnn_120_bird_10_n02018795_12419.png
cornet-s,4,785,NaN,cat,bird,120,4145_ps_dnn_120_bird_10_n01560419_13139.png
cornet-s,4,786,NaN,knife,bird,120,4146_ps_dnn_120_bird_10_n01534433_511.png
cornet-s,4,787,NaN,clock,bird,120,4147_ps_dnn_120_bird_10_n01860187_8430.png
cornet-s,4,788,NaN,knife,bird,120,4148_ps_dnn_120_bird_10_n01532829_4422.png
cornet-s,4,789,NaN,bird,bird,120,4149_ps_dnn_120_bird_10_n02009912_7241.png
cornet-s,4,790,NaN,elephant,bird,120,4150_ps_dnn_120_bird_10_n02056570_3283.png
cornet-s,4,791,NaN,elephant,dog,120,4151_ps_dnn_120_dog_10_n02096051_6470.png
cornet-s,4,792,NaN,elephant,dog,120,4152_ps_dnn_120_dog_10_n02086910_2151.png
cornet-s,4,793,NaN,elephant,dog,120,4153_ps_dnn_120_dog_10_n02100236_8040.png
cornet-s,4,794,NaN,oven,dog,120,4154_ps_dnn_120_dog_10_n02113799_9895.png
cornet-s,4,795,NaN,elephant,dog,120,4155_ps_dnn_120_dog_10_n02098105_6709.png
cornet-s,4,796,NaN,bird,dog,120,4156_ps_dnn_120_dog_10_n02107142_45488.png
cornet-s,4,797,NaN,elephant,dog,120,4157_ps_dnn_120_dog_10_n02107683_3586.png
cornet-s,4,798,NaN,elephant,dog,120,4158_ps_dnn_120_dog_10_n02091134_17063.png
cornet-s,4,799,NaN,elephant,dog,120,4159_ps_dnn_120_dog_10_n02107312_3521.png
cornet-s,4,800,NaN,bear,dog,120,4160_ps_dnn_120_dog_10_n02087046_6273.png
cornet-s,4,801,NaN,bear,knife,150,4161_ps_dnn_150_knife_10_n03041632_5102.png
cornet-s,4,802,NaN,cat,knife,150,4162_ps_dnn_150_knife_10_n03041632_47743.png
cornet-s,4,803,NaN,elephant,knife,150,4163_ps_dnn_150_knife_10_n03041632_45264.png
cornet-s,4,804,NaN,clock,knife,150,4164_ps_dnn_150_knife_10_n03041632_46720.png
cornet-s,4,805,NaN,knife,knife,150,4165_ps_dnn_150_knife_10_n03041632_7380.png
cornet-s,4,806,NaN,knife,knife,150,4166_ps_dnn_150_knife_10_n03041632_19866.png
cornet-s,4,807,NaN,knife,knife,150,4167_ps_dnn_150_knife_10_n03041632_2483.png
cornet-s,4,808,NaN,knife,knife,150,4168_ps_dnn_150_knife_10_n03041632_11932.png
cornet-s,4,809,NaN,cat,knife,150,4169_ps_dnn_150_knife_10_n03041632_52702.png
cornet-s,4,810,NaN,clock,knife,150,4170_ps_dnn_150_knife_10_n03041632_38610.png
cornet-s,4,811,NaN,knife,keyboard,150,4171_ps_dnn_150_keyboard_10_n03085013_805.png
cornet-s,4,812,NaN,knife,keyboard,150,4172_ps_dnn_150_keyboard_10_n04505470_4965.png
cornet-s,4,813,NaN,knife,keyboard,150,4173_ps_dnn_150_keyboard_10_n04505470_312.png
cornet-s,4,814,NaN,dog,keyboard,150,4174_ps_dnn_150_keyboard_10_n03085013_24577.png
cornet-s,4,815,NaN,cat,keyboard,150,4175_ps_dnn_150_keyboard_10_n04505470_4324.png
cornet-s,4,816,NaN,cat,keyboard,150,4176_ps_dnn_150_keyboard_10_n03085013_23350.png
cornet-s,4,817,NaN,cat,keyboard,150,4177_ps_dnn_150_keyboard_10_n04505470_3957.png
cornet-s,4,818,NaN,dog,keyboard,150,4178_ps_dnn_150_keyboard_10_n04505470_4422.png
cornet-s,4,819,NaN,knife,keyboard,150,4179_ps_dnn_150_keyboard_10_n03085013_7536.png
cornet-s,4,820,NaN,knife,keyboard,150,4180_ps_dnn_150_keyboard_10_n03085013_25800.png
cornet-s,4,821,NaN,knife,elephant,150,4181_ps_dnn_150_elephant_10_n02504458_6301.png
cornet-s,4,822,NaN,boat,elephant,150,4182_ps_dnn_150_elephant_10_n02504458_1893.png
cornet-s,4,823,NaN,knife,elephant,150,4183_ps_dnn_150_elephant_10_n02504013_5774.png
cornet-s,4,824,NaN,knife,elephant,150,4184_ps_dnn_150_elephant_10_n02504013_1879.png
cornet-s,4,825,NaN,cat,elephant,150,4185_ps_dnn_150_elephant_10_n02504013_10965.png
cornet-s,4,826,NaN,knife,elephant,150,4186_ps_dnn_150_elephant_10_n02504458_7063.png
cornet-s,4,827,NaN,oven,elephant,150,4187_ps_dnn_150_elephant_10_n02504013_438.png
cornet-s,4,828,NaN,cat,elephant,150,4188_ps_dnn_150_elephant_10_n02504458_8291.png
cornet-s,4,829,NaN,elephant,elephant,150,4189_ps_dnn_150_elephant_10_n02504013_2893.png
cornet-s,4,830,NaN,knife,elephant,150,4190_ps_dnn_150_elephant_10_n02504458_3068.png
cornet-s,4,831,NaN,knife,bicycle,150,4191_ps_dnn_150_bicycle_10_n02835271_158.png
cornet-s,4,832,NaN,knife,bicycle,150,4192_ps_dnn_150_bicycle_10_n02835271_22948.png
cornet-s,4,833,NaN,knife,bicycle,150,4193_ps_dnn_150_bicycle_10_n02835271_20558.png
cornet-s,4,834,NaN,bear,bicycle,150,4194_ps_dnn_150_bicycle_10_n02835271_5001.png
cornet-s,4,835,NaN,dog,bicycle,150,4195_ps_dnn_150_bicycle_10_n03792782_23764.png
cornet-s,4,836,NaN,knife,bicycle,150,4196_ps_dnn_150_bicycle_10_n02835271_12544.png
cornet-s,4,837,NaN,dog,bicycle,150,4197_ps_dnn_150_bicycle_10_n02835271_9260.png
cornet-s,4,838,NaN,bird,bicycle,150,4198_ps_dnn_150_bicycle_10_n03792782_16379.png
cornet-s,4,839,NaN,knife,bicycle,150,4199_ps_dnn_150_bicycle_10_n02835271_9216.png
cornet-s,4,840,NaN,knife,bicycle,150,4200_ps_dnn_150_bicycle_10_n02835271_1721.png
cornet-s,4,841,NaN,knife,airplane,150,4201_ps_dnn_150_airplane_10_n02690373_8527.png
cornet-s,4,842,NaN,knife,airplane,150,4202_ps_dnn_150_airplane_10_n02690373_4714.png
cornet-s,4,843,NaN,knife,airplane,150,4203_ps_dnn_150_airplane_10_n02690373_2130.png
cornet-s,4,844,NaN,knife,airplane,150,4204_ps_dnn_150_airplane_10_n02690373_2408.png
cornet-s,4,845,NaN,knife,airplane,150,4205_ps_dnn_150_airplane_10_n02690373_961.png
cornet-s,4,846,NaN,bear,airplane,150,4206_ps_dnn_150_airplane_10_n02690373_1891.png
cornet-s,4,847,NaN,knife,airplane,150,4207_ps_dnn_150_airplane_10_n02690373_6567.png
cornet-s,4,848,NaN,knife,airplane,150,4208_ps_dnn_150_airplane_10_n02690373_6773.png
cornet-s,4,849,NaN,knife,airplane,150,4209_ps_dnn_150_airplane_10_n02690373_4202.png
cornet-s,4,850,NaN,boat,airplane,150,4210_ps_dnn_150_airplane_10_n02690373_3928.png
cornet-s,4,851,NaN,knife,clock,150,4211_ps_dnn_150_clock_10_n04548280_3093.png
cornet-s,4,852,NaN,knife,clock,150,4212_ps_dnn_150_clock_10_n03196217_8792.png
cornet-s,4,853,NaN,dog,clock,150,4213_ps_dnn_150_clock_10_n04548280_5843.png
cornet-s,4,854,NaN,cat,clock,150,4214_ps_dnn_150_clock_10_n02708093_6664.png
cornet-s,4,855,NaN,knife,clock,150,4215_ps_dnn_150_clock_10_n04548280_994.png
cornet-s,4,856,NaN,knife,clock,150,4216_ps_dnn_150_clock_10_n03196217_194.png
cornet-s,4,857,NaN,knife,clock,150,4217_ps_dnn_150_clock_10_n04548280_3125.png
cornet-s,4,858,NaN,cat,clock,150,4218_ps_dnn_150_clock_10_n02708093_6595.png
cornet-s,4,859,NaN,knife,clock,150,4219_ps_dnn_150_clock_10_n04548280_8883.png
cornet-s,4,860,NaN,knife,clock,150,4220_ps_dnn_150_clock_10_n04548280_20518.png
cornet-s,4,861,NaN,dog,oven,150,4221_ps_dnn_150_oven_10_n04111531_17045.png
cornet-s,4,862,NaN,clock,oven,150,4222_ps_dnn_150_oven_10_n04111531_4148.png
cornet-s,4,863,NaN,bear,oven,150,4223_ps_dnn_150_oven_10_n04111531_22203.png
cornet-s,4,864,NaN,knife,oven,150,4224_ps_dnn_150_oven_10_n04111531_5991.png
cornet-s,4,865,NaN,cat,oven,150,4225_ps_dnn_150_oven_10_n04111531_8681.png
cornet-s,4,866,NaN,knife,oven,150,4226_ps_dnn_150_oven_10_n04111531_1938.png
cornet-s,4,867,NaN,cat,oven,150,4227_ps_dnn_150_oven_10_n04111531_7945.png
cornet-s,4,868,NaN,knife,oven,150,4228_ps_dnn_150_oven_10_n04111531_10722.png
cornet-s,4,869,NaN,cat,oven,150,4229_ps_dnn_150_oven_10_n04111531_12929.png
cornet-s,4,870,NaN,boat,oven,150,4230_ps_dnn_150_oven_10_n04111531_10336.png
cornet-s,4,871,NaN,bear,chair,150,4231_ps_dnn_150_chair_10_n04429376_6265.png
cornet-s,4,872,NaN,knife,chair,150,4232_ps_dnn_150_chair_10_n04099969_35740.png
cornet-s,4,873,NaN,knife,chair,150,4233_ps_dnn_150_chair_10_n02791124_1962.png
cornet-s,4,874,NaN,knife,chair,150,4234_ps_dnn_150_chair_10_n04099969_45461.png
cornet-s,4,875,NaN,knife,chair,150,4235_ps_dnn_150_chair_10_n03376595_8520.png
cornet-s,4,876,NaN,knife,chair,150,4236_ps_dnn_150_chair_10_n04099969_39773.png
cornet-s,4,877,NaN,cat,chair,150,4237_ps_dnn_150_chair_10_n03376595_4217.png
cornet-s,4,878,NaN,elephant,chair,150,4238_ps_dnn_150_chair_10_n04099969_6940.png
cornet-s,4,879,NaN,dog,chair,150,4239_ps_dnn_150_chair_10_n03376595_4155.png
cornet-s,4,880,NaN,cat,chair,150,4240_ps_dnn_150_chair_10_n03376595_4354.png
cornet-s,4,881,NaN,boat,bear,150,4241_ps_dnn_150_bear_10_n02132136_5921.png
cornet-s,4,882,NaN,clock,bear,150,4242_ps_dnn_150_bear_10_n02134084_18679.png
cornet-s,4,883,NaN,knife,bear,150,4243_ps_dnn_150_bear_10_n02134418_2406.png
cornet-s,4,884,NaN,bear,bear,150,4244_ps_dnn_150_bear_10_n02134418_6016.png
cornet-s,4,885,NaN,airplane,bear,150,4245_ps_dnn_150_bear_10_n02134084_12136.png
cornet-s,4,886,NaN,elephant,bear,150,4246_ps_dnn_150_bear_10_n02134084_7095.png
cornet-s,4,887,NaN,knife,bear,150,4247_ps_dnn_150_bear_10_n02132136_32072.png
cornet-s,4,888,NaN,knife,bear,150,4248_ps_dnn_150_bear_10_n02133161_12893.png
cornet-s,4,889,NaN,elephant,bear,150,4249_ps_dnn_150_bear_10_n02134418_11090.png
cornet-s,4,890,NaN,knife,bear,150,4250_ps_dnn_150_bear_10_n02133161_12868.png
cornet-s,4,891,NaN,knife,boat,150,4251_ps_dnn_150_boat_10_n03344393_1519.png
cornet-s,4,892,NaN,knife,boat,150,4252_ps_dnn_150_boat_10_n03344393_2167.png
cornet-s,4,893,NaN,knife,boat,150,4253_ps_dnn_150_boat_10_n03662601_21690.png
cornet-s,4,894,NaN,boat,boat,150,4254_ps_dnn_150_boat_10_n04273569_5826.png
cornet-s,4,895,NaN,knife,boat,150,4255_ps_dnn_150_boat_10_n02951358_12692.png
cornet-s,4,896,NaN,knife,boat,150,4256_ps_dnn_150_boat_10_n02951358_35469.png
cornet-s,4,897,NaN,boat,boat,150,4257_ps_dnn_150_boat_10_n04273569_973.png
cornet-s,4,898,NaN,knife,boat,150,4258_ps_dnn_150_boat_10_n02951358_12663.png
cornet-s,4,899,NaN,knife,boat,150,4259_ps_dnn_150_boat_10_n02951358_13412.png
cornet-s,4,900,NaN,knife,boat,150,4260_ps_dnn_150_boat_10_n03662601_2417.png
cornet-s,4,901,NaN,cat,cat,150,4261_ps_dnn_150_cat_10_n02124075_14738.png
cornet-s,4,902,NaN,knife,cat,150,4262_ps_dnn_150_cat_10_n02123159_6997.png
cornet-s,4,903,NaN,knife,cat,150,4263_ps_dnn_150_cat_10_n02123597_12171.png
cornet-s,4,904,NaN,bear,cat,150,4264_ps_dnn_150_cat_10_n02123045_7471.png
cornet-s,4,905,NaN,clock,cat,150,4265_ps_dnn_150_cat_10_n02123159_1414.png
cornet-s,4,906,NaN,knife,cat,150,4266_ps_dnn_150_cat_10_n02123045_4522.png
cornet-s,4,907,NaN,knife,cat,150,4267_ps_dnn_150_cat_10_n02123159_4952.png
cornet-s,4,908,NaN,cat,cat,150,4268_ps_dnn_150_cat_10_n02123597_1367.png
cornet-s,4,909,NaN,cat,cat,150,4269_ps_dnn_150_cat_10_n02123159_650.png
cornet-s,4,910,NaN,dog,cat,150,4270_ps_dnn_150_cat_10_n02123597_8136.png
cornet-s,4,911,NaN,cat,bottle,150,4271_ps_dnn_150_bottle_10_n04591713_13550.png
cornet-s,4,912,NaN,knife,bottle,150,4272_ps_dnn_150_bottle_10_n03937543_421.png
cornet-s,4,913,NaN,knife,bottle,150,4273_ps_dnn_150_bottle_10_n04560804_11800.png
cornet-s,4,914,NaN,bird,bottle,150,4274_ps_dnn_150_bottle_10_n04560804_14605.png
cornet-s,4,915,NaN,dog,bottle,150,4275_ps_dnn_150_bottle_10_n02823428_762.png
cornet-s,4,916,NaN,knife,bottle,150,4276_ps_dnn_150_bottle_10_n04560804_2693.png
cornet-s,4,917,NaN,dog,bottle,150,4277_ps_dnn_150_bottle_10_n04557648_259.png
cornet-s,4,918,NaN,clock,bottle,150,4278_ps_dnn_150_bottle_10_n02823428_6812.png
cornet-s,4,919,NaN,dog,bottle,150,4279_ps_dnn_150_bottle_10_n04591713_15478.png
cornet-s,4,920,NaN,knife,bottle,150,4280_ps_dnn_150_bottle_10_n03983396_8311.png
cornet-s,4,921,NaN,knife,truck,150,4281_ps_dnn_150_truck_10_n03417042_18981.png
cornet-s,4,922,NaN,cat,truck,150,4282_ps_dnn_150_truck_10_n03796401_13378.png
cornet-s,4,923,NaN,knife,truck,150,4283_ps_dnn_150_truck_10_n04467665_34452.png
cornet-s,4,924,NaN,bear,truck,150,4284_ps_dnn_150_truck_10_n03417042_10154.png
cornet-s,4,925,NaN,cat,truck,150,4285_ps_dnn_150_truck_10_n03796401_666.png
cornet-s,4,926,NaN,bear,truck,150,4286_ps_dnn_150_truck_10_n03417042_4655.png
cornet-s,4,927,NaN,cat,truck,150,4287_ps_dnn_150_truck_10_n04467665_75984.png
cornet-s,4,928,NaN,knife,truck,150,4288_ps_dnn_150_truck_10_n04467665_80098.png
cornet-s,4,929,NaN,cat,truck,150,4289_ps_dnn_150_truck_10_n03796401_7179.png
cornet-s,4,930,NaN,knife,truck,150,4290_ps_dnn_150_truck_10_n03796401_2514.png
cornet-s,4,931,NaN,boat,car,150,4291_ps_dnn_150_car_10_n03100240_2420.png
cornet-s,4,932,NaN,knife,car,150,4292_ps_dnn_150_car_10_n02814533_1881.png
cornet-s,4,933,NaN,bear,car,150,4293_ps_dnn_150_car_10_n04285008_11688.png
cornet-s,4,934,NaN,boat,car,150,4294_ps_dnn_150_car_10_n03100240_21737.png
cornet-s,4,935,NaN,knife,car,150,4295_ps_dnn_150_car_10_n03100240_7946.png
cornet-s,4,936,NaN,bear,car,150,4296_ps_dnn_150_car_10_n04285008_11352.png
cornet-s,4,937,NaN,knife,car,150,4297_ps_dnn_150_car_10_n04285008_11713.png
cornet-s,4,938,NaN,cat,car,150,4298_ps_dnn_150_car_10_n02814533_16978.png
cornet-s,4,939,NaN,cat,car,150,4299_ps_dnn_150_car_10_n02814533_26174.png
cornet-s,4,940,NaN,bear,car,150,4300_ps_dnn_150_car_10_n03100240_261.png
cornet-s,4,941,NaN,knife,bird,150,4301_ps_dnn_150_bird_10_n01514859_3088.png
cornet-s,4,942,NaN,knife,bird,150,4302_ps_dnn_150_bird_10_n02028035_331.png
cornet-s,4,943,NaN,cat,bird,150,4303_ps_dnn_150_bird_10_n01531178_18509.png
cornet-s,4,944,NaN,cat,bird,150,4304_ps_dnn_150_bird_10_n02017213_6626.png
cornet-s,4,945,NaN,bear,bird,150,4305_ps_dnn_150_bird_10_n01843383_8585.png
cornet-s,4,946,NaN,clock,bird,150,4306_ps_dnn_150_bird_10_n01843065_529.png
cornet-s,4,947,NaN,knife,bird,150,4307_ps_dnn_150_bird_10_n01534433_2689.png
cornet-s,4,948,NaN,knife,bird,150,4308_ps_dnn_150_bird_10_n01530575_10351.png
cornet-s,4,949,NaN,cat,bird,150,4309_ps_dnn_150_bird_10_n02002556_4806.png
cornet-s,4,950,NaN,knife,bird,150,4310_ps_dnn_150_bird_10_n02007558_5345.png
cornet-s,4,951,NaN,dog,dog,150,4311_ps_dnn_150_dog_10_n02086646_7140.png
cornet-s,4,952,NaN,knife,dog,150,4312_ps_dnn_150_dog_10_n02101006_1633.png
cornet-s,4,953,NaN,bear,dog,150,4313_ps_dnn_150_dog_10_n02105641_6021.png
cornet-s,4,954,NaN,knife,dog,150,4314_ps_dnn_150_dog_10_n02096437_4384.png
cornet-s,4,955,NaN,elephant,dog,150,4315_ps_dnn_150_dog_10_n02105505_1047.png
cornet-s,4,956,NaN,knife,dog,150,4316_ps_dnn_150_dog_10_n02104365_9496.png
cornet-s,4,957,NaN,elephant,dog,150,4317_ps_dnn_150_dog_10_n02091831_13794.png
cornet-s,4,958,NaN,clock,dog,150,4318_ps_dnn_150_dog_10_n02105641_10838.png
cornet-s,4,959,NaN,knife,dog,150,4319_ps_dnn_150_dog_10_n02112706_2586.png
cornet-s,4,960,NaN,knife,dog,150,4320_ps_dnn_150_dog_10_n02097298_11077.png
cornet-s,4,961,NaN,knife,knife,180,4321_ps_dnn_180_knife_10_n03041632_28201.png
cornet-s,4,962,NaN,cat,knife,180,4322_ps_dnn_180_knife_10_n03041632_86554.png
cornet-s,4,963,NaN,knife,knife,180,4323_ps_dnn_180_knife_10_n03041632_46103.png
cornet-s,4,964,NaN,clock,knife,180,4324_ps_dnn_180_knife_10_n03041632_32459.png
cornet-s,4,965,NaN,knife,knife,180,4325_ps_dnn_180_knife_10_n03041632_27960.png
cornet-s,4,966,NaN,knife,knife,180,4326_ps_dnn_180_knife_10_n03041632_21560.png
cornet-s,4,967,NaN,cat,knife,180,4327_ps_dnn_180_knife_10_n03041632_32337.png
cornet-s,4,968,NaN,bear,knife,180,4328_ps_dnn_180_knife_10_n03041632_23736.png
cornet-s,4,969,NaN,bear,knife,180,4329_ps_dnn_180_knife_10_n03041632_20662.png
cornet-s,4,970,NaN,knife,knife,180,4330_ps_dnn_180_knife_10_n03041632_4494.png
cornet-s,4,971,NaN,knife,keyboard,180,4331_ps_dnn_180_keyboard_10_n04505470_4498.png
cornet-s,4,972,NaN,bear,keyboard,180,4332_ps_dnn_180_keyboard_10_n03085013_20495.png
cornet-s,4,973,NaN,keyboard,keyboard,180,4333_ps_dnn_180_keyboard_10_n04505470_73.png
cornet-s,4,974,NaN,cat,keyboard,180,4334_ps_dnn_180_keyboard_10_n04505470_1245.png
cornet-s,4,975,NaN,boat,keyboard,180,4335_ps_dnn_180_keyboard_10_n04505470_4950.png
cornet-s,4,976,NaN,boat,keyboard,180,4336_ps_dnn_180_keyboard_10_n03085013_7322.png
cornet-s,4,977,NaN,knife,keyboard,180,4337_ps_dnn_180_keyboard_10_n03085013_4157.png
cornet-s,4,978,NaN,bear,keyboard,180,4338_ps_dnn_180_keyboard_10_n04505470_2115.png
cornet-s,4,979,NaN,dog,keyboard,180,4339_ps_dnn_180_keyboard_10_n03085013_23173.png
cornet-s,4,980,NaN,knife,keyboard,180,4340_ps_dnn_180_keyboard_10_n04505470_1236.png
cornet-s,4,981,NaN,knife,elephant,180,4341_ps_dnn_180_elephant_10_n02504458_5274.png
cornet-s,4,982,NaN,knife,elephant,180,4342_ps_dnn_180_elephant_10_n02504013_87.png
cornet-s,4,983,NaN,knife,elephant,180,4343_ps_dnn_180_elephant_10_n02504458_1197.png
cornet-s,4,984,NaN,knife,elephant,180,4344_ps_dnn_180_elephant_10_n02504013_6405.png
cornet-s,4,985,NaN,clock,elephant,180,4345_ps_dnn_180_elephant_10_n02504013_4166.png
cornet-s,4,986,NaN,knife,elephant,180,4346_ps_dnn_180_elephant_10_n02504013_1099.png
cornet-s,4,987,NaN,cat,elephant,180,4347_ps_dnn_180_elephant_10_n02504458_9237.png
cornet-s,4,988,NaN,dog,elephant,180,4348_ps_dnn_180_elephant_10_n02504013_8002.png
cornet-s,4,989,NaN,cat,elephant,180,4349_ps_dnn_180_elephant_10_n02504013_2445.png
cornet-s,4,990,NaN,elephant,elephant,180,4350_ps_dnn_180_elephant_10_n02504013_5351.png
cornet-s,4,991,NaN,knife,bicycle,180,4351_ps_dnn_180_bicycle_10_n03792782_3552.png
cornet-s,4,992,NaN,knife,bicycle,180,4352_ps_dnn_180_bicycle_10_n02835271_4935.png
cornet-s,4,993,NaN,knife,bicycle,180,4353_ps_dnn_180_bicycle_10_n03792782_32232.png
cornet-s,4,994,NaN,knife,bicycle,180,4354_ps_dnn_180_bicycle_10_n02835271_75.png
cornet-s,4,995,NaN,bear,bicycle,180,4355_ps_dnn_180_bicycle_10_n02835271_13213.png
cornet-s,4,996,NaN,knife,bicycle,180,4356_ps_dnn_180_bicycle_10_n02835271_1345.png
cornet-s,4,997,NaN,knife,bicycle,180,4357_ps_dnn_180_bicycle_10_n02835271_8081.png
cornet-s,4,998,NaN,knife,bicycle,180,4358_ps_dnn_180_bicycle_10_n03792782_19840.png
cornet-s,4,999,NaN,knife,bicycle,180,4359_ps_dnn_180_bicycle_10_n03792782_3342.png
cornet-s,4,1000,NaN,dog,bicycle,180,4360_ps_dnn_180_bicycle_10_n02835271_8453.png
cornet-s,4,1001,NaN,cat,airplane,180,4361_ps_dnn_180_airplane_10_n02690373_19673.png
cornet-s,4,1002,NaN,cat,airplane,180,4362_ps_dnn_180_airplane_10_n02690373_4243.png
cornet-s,4,1003,NaN,cat,airplane,180,4363_ps_dnn_180_airplane_10_n02690373_13021.png
cornet-s,4,1004,NaN,cat,airplane,180,4364_ps_dnn_180_airplane_10_n02690373_5789.png
cornet-s,4,1005,NaN,cat,airplane,180,4365_ps_dnn_180_airplane_10_n02690373_19742.png
cornet-s,4,1006,NaN,knife,airplane,180,4366_ps_dnn_180_airplane_10_n02690373_9605.png
cornet-s,4,1007,NaN,knife,airplane,180,4367_ps_dnn_180_airplane_10_n02690373_3150.png
cornet-s,4,1008,NaN,boat,airplane,180,4368_ps_dnn_180_airplane_10_n02690373_9533.png
cornet-s,4,1009,NaN,knife,airplane,180,4369_ps_dnn_180_airplane_10_n02690373_7647.png
cornet-s,4,1010,NaN,boat,airplane,180,4370_ps_dnn_180_airplane_10_n02690373_5075.png
cornet-s,4,1011,NaN,knife,clock,180,4371_ps_dnn_180_clock_10_n04548280_5629.png
cornet-s,4,1012,NaN,clock,clock,180,4372_ps_dnn_180_clock_10_n03196217_5627.png
cornet-s,4,1013,NaN,knife,clock,180,4373_ps_dnn_180_clock_10_n02708093_3664.png
cornet-s,4,1014,NaN,knife,clock,180,4374_ps_dnn_180_clock_10_n04548280_9646.png
cornet-s,4,1015,NaN,knife,clock,180,4375_ps_dnn_180_clock_10_n02708093_3438.png
cornet-s,4,1016,NaN,elephant,clock,180,4376_ps_dnn_180_clock_10_n04548280_4709.png
cornet-s,4,1017,NaN,cat,clock,180,4377_ps_dnn_180_clock_10_n03196217_11351.png
cornet-s,4,1018,NaN,knife,clock,180,4378_ps_dnn_180_clock_10_n04548280_8494.png
cornet-s,4,1019,NaN,knife,clock,180,4379_ps_dnn_180_clock_10_n02708093_5758.png
cornet-s,4,1020,NaN,knife,clock,180,4380_ps_dnn_180_clock_10_n04548280_5013.png
cornet-s,4,1021,NaN,knife,oven,180,4381_ps_dnn_180_oven_10_n04111531_12769.png
cornet-s,4,1022,NaN,oven,oven,180,4382_ps_dnn_180_oven_10_n04111531_22916.png
cornet-s,4,1023,NaN,clock,oven,180,4383_ps_dnn_180_oven_10_n04111531_14690.png
cornet-s,4,1024,NaN,cat,oven,180,4384_ps_dnn_180_oven_10_n04111531_11794.png
cornet-s,4,1025,NaN,dog,oven,180,4385_ps_dnn_180_oven_10_n04111531_9822.png
cornet-s,4,1026,NaN,dog,oven,180,4386_ps_dnn_180_oven_10_n04111531_3611.png
cornet-s,4,1027,NaN,clock,oven,180,4387_ps_dnn_180_oven_10_n04111531_17809.png
cornet-s,4,1028,NaN,boat,oven,180,4388_ps_dnn_180_oven_10_n04111531_15492.png
cornet-s,4,1029,NaN,cat,oven,180,4389_ps_dnn_180_oven_10_n04111531_7130.png
cornet-s,4,1030,NaN,dog,oven,180,4390_ps_dnn_180_oven_10_n04111531_14951.png
cornet-s,4,1031,NaN,knife,chair,180,4391_ps_dnn_180_chair_10_n03376595_10983.png
cornet-s,4,1032,NaN,knife,chair,180,4392_ps_dnn_180_chair_10_n03376595_5730.png
cornet-s,4,1033,NaN,clock,chair,180,4393_ps_dnn_180_chair_10_n04429376_14186.png
cornet-s,4,1034,NaN,cat,chair,180,4394_ps_dnn_180_chair_10_n03376595_6791.png
cornet-s,4,1035,NaN,elephant,chair,180,4395_ps_dnn_180_chair_10_n02791124_4312.png
cornet-s,4,1036,NaN,cat,chair,180,4396_ps_dnn_180_chair_10_n03376595_6586.png
cornet-s,4,1037,NaN,dog,chair,180,4397_ps_dnn_180_chair_10_n02791124_1895.png
cornet-s,4,1038,NaN,knife,chair,180,4398_ps_dnn_180_chair_10_n03376595_6570.png
cornet-s,4,1039,NaN,knife,chair,180,4399_ps_dnn_180_chair_10_n04429376_6480.png
cornet-s,4,1040,NaN,cat,chair,180,4400_ps_dnn_180_chair_10_n04099969_24495.png
cornet-s,4,1041,NaN,knife,bear,180,4401_ps_dnn_180_bear_10_n02132136_24229.png
cornet-s,4,1042,NaN,knife,bear,180,4402_ps_dnn_180_bear_10_n02134418_2468.png
cornet-s,4,1043,NaN,cat,bear,180,4403_ps_dnn_180_bear_10_n02132136_8637.png
cornet-s,4,1044,NaN,dog,bear,180,4404_ps_dnn_180_bear_10_n02132136_20422.png
cornet-s,4,1045,NaN,knife,bear,180,4405_ps_dnn_180_bear_10_n02133161_13356.png
cornet-s,4,1046,NaN,bear,bear,180,4406_ps_dnn_180_bear_10_n02134084_1910.png
cornet-s,4,1047,NaN,knife,bear,180,4407_ps_dnn_180_bear_10_n02133161_5365.png
cornet-s,4,1048,NaN,cat,bear,180,4408_ps_dnn_180_bear_10_n02134084_4891.png
cornet-s,4,1049,NaN,cat,bear,180,4409_ps_dnn_180_bear_10_n02134084_7841.png
cornet-s,4,1050,NaN,knife,bear,180,4410_ps_dnn_180_bear_10_n02134418_3855.png
cornet-s,4,1051,NaN,knife,boat,180,4411_ps_dnn_180_boat_10_n04273569_13187.png
cornet-s,4,1052,NaN,knife,boat,180,4412_ps_dnn_180_boat_10_n03662601_7935.png
cornet-s,4,1053,NaN,knife,boat,180,4413_ps_dnn_180_boat_10_n03344393_3443.png
cornet-s,4,1054,NaN,knife,boat,180,4414_ps_dnn_180_boat_10_n04273569_892.png
cornet-s,4,1055,NaN,knife,boat,180,4415_ps_dnn_180_boat_10_n04612504_9154.png
cornet-s,4,1056,NaN,boat,boat,180,4416_ps_dnn_180_boat_10_n02951358_1290.png
cornet-s,4,1057,NaN,knife,boat,180,4417_ps_dnn_180_boat_10_n03662601_17714.png
cornet-s,4,1058,NaN,cat,boat,180,4418_ps_dnn_180_boat_10_n02951358_6569.png
cornet-s,4,1059,NaN,knife,boat,180,4419_ps_dnn_180_boat_10_n03662601_20797.png
cornet-s,4,1060,NaN,knife,boat,180,4420_ps_dnn_180_boat_10_n03344393_909.png
cornet-s,4,1061,NaN,knife,cat,180,4421_ps_dnn_180_cat_10_n02124075_4454.png
cornet-s,4,1062,NaN,knife,cat,180,4422_ps_dnn_180_cat_10_n02123597_6880.png
cornet-s,4,1063,NaN,knife,cat,180,4423_ps_dnn_180_cat_10_n02125311_30099.png
cornet-s,4,1064,NaN,bird,cat,180,4424_ps_dnn_180_cat_10_n02124075_10775.png
cornet-s,4,1065,NaN,bear,cat,180,4425_ps_dnn_180_cat_10_n02123394_3590.png
cornet-s,4,1066,NaN,dog,cat,180,4426_ps_dnn_180_cat_10_n02125311_9071.png
cornet-s,4,1067,NaN,airplane,cat,180,4427_ps_dnn_180_cat_10_n02123045_5597.png
cornet-s,4,1068,NaN,knife,cat,180,4428_ps_dnn_180_cat_10_n02123597_9531.png
cornet-s,4,1069,NaN,knife,cat,180,4429_ps_dnn_180_cat_10_n02124075_15119.png
cornet-s,4,1070,NaN,cat,cat,180,4430_ps_dnn_180_cat_10_n02123597_28683.png
cornet-s,4,1071,NaN,cat,bottle,180,4431_ps_dnn_180_bottle_10_n03937543_6620.png
cornet-s,4,1072,NaN,dog,bottle,180,4432_ps_dnn_180_bottle_10_n04557648_524.png
cornet-s,4,1073,NaN,dog,bottle,180,4433_ps_dnn_180_bottle_10_n02823428_13458.png
cornet-s,4,1074,NaN,bear,bottle,180,4434_ps_dnn_180_bottle_10_n03937543_4365.png
cornet-s,4,1075,NaN,dog,bottle,180,4435_ps_dnn_180_bottle_10_n04591713_3360.png
cornet-s,4,1076,NaN,clock,bottle,180,4436_ps_dnn_180_bottle_10_n02823428_14636.png
cornet-s,4,1077,NaN,knife,bottle,180,4437_ps_dnn_180_bottle_10_n03937543_5322.png
cornet-s,4,1078,NaN,cat,bottle,180,4438_ps_dnn_180_bottle_10_n03983396_11597.png
cornet-s,4,1079,NaN,dog,bottle,180,4439_ps_dnn_180_bottle_10_n04560804_4192.png
cornet-s,4,1080,NaN,knife,bottle,180,4440_ps_dnn_180_bottle_10_n04579145_526.png
cornet-s,4,1081,NaN,boat,truck,180,4441_ps_dnn_180_truck_10_n04467665_3710.png
cornet-s,4,1082,NaN,cat,truck,180,4442_ps_dnn_180_truck_10_n03417042_17757.png
cornet-s,4,1083,NaN,dog,truck,180,4443_ps_dnn_180_truck_10_n03417042_13806.png
cornet-s,4,1084,NaN,cat,truck,180,4444_ps_dnn_180_truck_10_n03417042_8348.png
cornet-s,4,1085,NaN,bear,truck,180,4445_ps_dnn_180_truck_10_n03796401_4454.png
cornet-s,4,1086,NaN,cat,truck,180,4446_ps_dnn_180_truck_10_n04467665_5951.png
cornet-s,4,1087,NaN,chair,truck,180,4447_ps_dnn_180_truck_10_n04467665_16261.png
cornet-s,4,1088,NaN,knife,truck,180,4448_ps_dnn_180_truck_10_n03417042_11.png
cornet-s,4,1089,NaN,knife,truck,180,4449_ps_dnn_180_truck_10_n03417042_21705.png
cornet-s,4,1090,NaN,knife,truck,180,4450_ps_dnn_180_truck_10_n03417042_12013.png
cornet-s,4,1091,NaN,boat,car,180,4451_ps_dnn_180_car_10_n03100240_8862.png
cornet-s,4,1092,NaN,knife,car,180,4452_ps_dnn_180_car_10_n03100240_15009.png
cornet-s,4,1093,NaN,bear,car,180,4453_ps_dnn_180_car_10_n02814533_3594.png
cornet-s,4,1094,NaN,knife,car,180,4454_ps_dnn_180_car_10_n04285008_13980.png
cornet-s,4,1095,NaN,knife,car,180,4455_ps_dnn_180_car_10_n02814533_94398.png
cornet-s,4,1096,NaN,knife,car,180,4456_ps_dnn_180_car_10_n04285008_16856.png
cornet-s,4,1097,NaN,knife,car,180,4457_ps_dnn_180_car_10_n03100240_6330.png
cornet-s,4,1098,NaN,knife,car,180,4458_ps_dnn_180_car_10_n02814533_52263.png
cornet-s,4,1099,NaN,cat,car,180,4459_ps_dnn_180_car_10_n02814533_22889.png
cornet-s,4,1100,NaN,knife,car,180,4460_ps_dnn_180_car_10_n03100240_7458.png
cornet-s,4,1101,NaN,knife,bird,180,4461_ps_dnn_180_bird_10_n01855672_8078.png
cornet-s,4,1102,NaN,knife,bird,180,4462_ps_dnn_180_bird_10_n02056570_9369.png
cornet-s,4,1103,NaN,dog,bird,180,4463_ps_dnn_180_bird_10_n01582220_154.png
cornet-s,4,1104,NaN,cat,bird,180,4464_ps_dnn_180_bird_10_n02018795_6113.png
cornet-s,4,1105,NaN,knife,bird,180,4465_ps_dnn_180_bird_10_n01855672_6102.png
cornet-s,4,1106,NaN,dog,bird,180,4466_ps_dnn_180_bird_10_n02051845_11767.png
cornet-s,4,1107,NaN,knife,bird,180,4467_ps_dnn_180_bird_10_n01817953_3602.png
cornet-s,4,1108,NaN,cat,bird,180,4468_ps_dnn_180_bird_10_n01616318_10857.png
cornet-s,4,1109,NaN,knife,bird,180,4469_ps_dnn_180_bird_10_n01616318_2054.png
cornet-s,4,1110,NaN,dog,bird,180,4470_ps_dnn_180_bird_10_n02037110_895.png
cornet-s,4,1111,NaN,knife,dog,180,4471_ps_dnn_180_dog_10_n02099601_2234.png
cornet-s,4,1112,NaN,dog,dog,180,4472_ps_dnn_180_dog_10_n02108915_5239.png
cornet-s,4,1113,NaN,cat,dog,180,4473_ps_dnn_180_dog_10_n02096437_7266.png
cornet-s,4,1114,NaN,bear,dog,180,4474_ps_dnn_180_dog_10_n02096294_9298.png
cornet-s,4,1115,NaN,clock,dog,180,4475_ps_dnn_180_dog_10_n02091032_5764.png
cornet-s,4,1116,NaN,cat,dog,180,4476_ps_dnn_180_dog_10_n02110185_14479.png
cornet-s,4,1117,NaN,knife,dog,180,4477_ps_dnn_180_dog_10_n02091032_9517.png
cornet-s,4,1118,NaN,cat,dog,180,4478_ps_dnn_180_dog_10_n02110958_12934.png
cornet-s,4,1119,NaN,knife,dog,180,4479_ps_dnn_180_dog_10_n02105505_1293.png
cornet-s,4,1120,NaN,knife,dog,180,4480_ps_dnn_180_dog_10_n02097047_2432.png
